"Time (s)","Acceleration x (m/s^2)","Acceleration y (m/s^2)","Acceleration z (m/s^2)"
3.696700900E-2,-3.657000065E0,7.981050491E0,-4.032000065E0
3.949785000E-2,-3.703050137E0,7.999950409E0,-4.012950420E0
4.203146500E-2,-3.742950201E0,8.053050041E0,-4.008000374E0
4.456523500E-2,-3.739050150E0,8.058000565E0,-4.033950329E0
4.709877300E-2,-3.739050150E0,8.071949959E0,-4.027050018E0
4.963238800E-2,-3.757950068E0,8.071949959E0,-4.042050362E0
5.216615800E-2,-3.724050283E0,8.077050209E0,-4.066050053E0
5.469969800E-2,-3.658950090E0,8.074049950E0,-4.057950020E0
5.723331100E-2,-3.621000290E0,8.059950829E0,-4.096950054E0
5.976685200E-2,-3.612000227E0,8.053050041E0,-4.101000309E0
6.230061900E-2,-3.585000277E0,8.035950661E0,-4.089000225E0
6.483423700E-2,-3.556050062E0,8.022000313E0,-4.069950104E0
6.736802300E-2,-3.609000206E0,8.002050400E0,-4.036950111E0
6.990156300E-2,-3.640050173E0,7.981050491E0,-4.045950413E0
7.243517700E-2,-3.628050089E0,7.998000145E0,-4.096950054E0
7.496871700E-2,-3.655050278E0,7.974000454E0,-4.084949970E0
7.750248000E-2,-3.673950195E0,7.966950417E0,-4.117949963E0
8.003609800E-2,-3.697950125E0,7.951950550E0,-4.135050297E0
8.256986500E-2,-3.681000233E0,7.950000286E0,-4.180050373E0
8.510340500E-2,-3.691050291E0,7.957050323E0,-4.192049980E0
8.763701400E-2,-3.703050137E0,7.950000286E0,-4.165950298E0
9.017055400E-2,-3.688050270E0,7.923000336E0,-4.164000034E0
9.270432200E-2,-3.691050291E0,7.923000336E0,-4.101000309E0
9.523793900E-2,-3.667050123E0,7.933050156E0,-4.036950111E0
9.777146700E-2,-3.688050270E0,7.951950550E0,-3.996000290E0
1.003052350E-1,-3.670950174E0,7.954950333E0,-3.952950239E0
1.028387750E-1,-3.709950209E0,7.963950157E0,-3.927000284E0
1.053723890E-1,-3.733950138E0,7.983000278E0,-3.916950226E0
1.079061580E-1,-3.760050297E0,7.947000504E0,-3.904950142E0
1.104396980E-1,-3.736050129E0,7.969050407E0,-3.915000200E0
1.129733120E-1,-3.765000105E0,7.969050407E0,-3.919050217E0
1.155068520E-1,-3.739050150E0,7.926000595E0,-3.922050238E0
1.180406380E-1,-3.772050142E0,7.957050323E0,-3.972000122E0
1.205742560E-1,-3.790950298E0,7.981050491E0,-3.960000277E0
1.231080230E-1,-3.826950073E0,7.966950417E0,-3.903000116E0
1.256415630E-1,-3.786000252E0,7.951950550E0,-3.928950071E0
1.281751820E-1,-3.772050142E0,7.951950550E0,-3.967050076E0
1.307087220E-1,-3.757950068E0,7.966950417E0,-3.963000298E0
1.332424900E-1,-3.685950279E0,7.987950325E0,-3.955050230E0
1.357761070E-1,-3.706950188E0,7.954950333E0,-3.982050180E0
1.383096160E-1,-3.682950258E0,7.954950333E0,-4.021950245E0
1.408433840E-1,-3.655050278E0,7.974000454E0,-3.963000298E0
1.433769240E-1,-3.588000059E0,7.963950157E0,-4.019999981E0
1.459105370E-1,-3.541950226E0,7.918950558E0,-4.056000233E0
1.484443020E-1,-3.504000187E0,7.939950466E0,-4.045950413E0
1.509779190E-1,-3.513000250E0,7.951950550E0,-4.075050354E0
1.535114580E-1,-3.508950233E0,7.975950241E0,-4.096950054E0
1.560452250E-1,-3.585000277E0,7.951950550E0,-4.116000175E0
1.585787560E-1,-3.589950085E0,7.927950382E0,-4.092000008E0
1.611123700E-1,-3.619050264E0,7.930950165E0,-4.104000092E0
1.636461390E-1,-3.612000227E0,7.903950214E0,-4.149000168E0
1.661796790E-1,-3.664050102E0,7.909050465E0,-4.223999977E0
1.687132830E-1,-3.670950174E0,7.870950222E0,-4.233000278E0
1.712470520E-1,-3.636000156E0,7.854000568E0,-4.225950241E0
1.737805920E-1,-3.646950245E0,7.852050304E0,-4.261950016E0
1.763142060E-1,-3.682950258E0,7.894950390E0,-4.281000137E0
1.788479800E-1,-3.694950104E0,7.885050297E0,-4.243050098E0
1.813815210E-1,-3.730950117E0,7.876050472E0,-4.173000336E0
1.839151340E-1,-3.772050142E0,7.882950306E0,-4.149000168E0
1.864486740E-1,-3.766950130E0,7.864050388E0,-4.072950363E0
1.889824420E-1,-3.721950293E0,7.837050438E0,-3.996000290E0
1.915160590E-1,-3.718950272E0,7.866000175E0,-3.964950085E0
1.940495970E-1,-3.724050283E0,7.828050137E0,-3.948000193E0
1.965833650E-1,-3.667050123E0,7.792050362E0,-3.997950077E0
1.991169870E-1,-3.646950245E0,7.818000317E0,-4.027050018E0
2.016505260E-1,-3.637950182E0,7.834950447E0,-4.108950138E0
2.041842930E-1,-3.658950090E0,7.842000484E0,-4.113000393E0
2.067179100E-1,-3.670950174E0,7.846950531E0,-4.080000401E0
2.092514580E-1,-3.643050194E0,7.852050304E0,-3.984000206E0
2.117852250E-1,-3.628050089E0,7.861050606E0,-4.003050327E0
2.143188420E-1,-3.637950182E0,7.890000343E0,-3.997950077E0
2.168523810E-1,-3.616050243E0,7.890000343E0,-3.997950077E0
2.193861480E-1,-3.597000122E0,7.878000259E0,-4.000950336E0
2.219196840E-1,-3.577950239E0,7.878000259E0,-3.985950232E0
2.244532980E-1,-3.577950239E0,7.902000427E0,-4.027050018E0
2.269868380E-1,-3.568050146E0,7.935000420E0,-4.032000065E0
2.295206830E-1,-3.577950239E0,7.897050381E0,-4.068000317E0
2.320542230E-1,-3.525000095E0,7.879950523E0,-4.080000401E0
2.345879940E-1,-3.511050224E0,7.842000484E0,-4.066050053E0
2.371215350E-1,-3.505950212E0,7.849050522E0,-4.099050045E0
2.396551480E-1,-3.537000179E0,7.873050213E0,-4.123050213E0
2.421886890E-1,-3.601950169E0,7.831950188E0,-4.066050053E0
2.447224560E-1,-3.633000135E0,7.831950188E0,-4.048950195E0
2.472560730E-1,-3.643050194E0,7.879950523E0,-4.036950111E0
2.497896120E-1,-3.717000246E0,7.891950607E0,-3.994050264E0
2.523233790E-1,-3.700050116E0,7.879950523E0,-4.019999981E0
2.548569960E-1,-3.700050116E0,7.938000202E0,-4.008000374E0
2.573907630E-1,-3.697950125E0,7.957050323E0,-3.996000290E0
2.599243040E-1,-3.685950279E0,7.947000504E0,-4.033950329E0
2.624579170E-1,-3.691050291E0,7.945050240E0,-4.018050194E0
2.649914530E-1,-3.706950188E0,7.957050323E0,-3.982050180E0
2.675252200E-1,-3.693000078E0,7.959000587E0,-3.943050146E0
2.700588370E-1,-3.705000162E0,7.947000504E0,-3.960000277E0
2.725923760E-1,-3.721950293E0,7.945050240E0,-3.967050076E0
2.751261480E-1,-3.786000252E0,7.962000370E0,-4.003050327E0
2.776596890E-1,-3.789000273E0,7.962000370E0,-4.036950111E0
2.801933020E-1,-3.793950081E0,7.921050549E0,-4.048950195E0
2.827268420E-1,-3.790950298E0,7.933050156E0,-4.012950420E0
2.852606970E-1,-3.789000273E0,7.951950550E0,-3.984000206E0
2.877942370E-1,-3.742950201E0,7.939950466E0,-3.997950077E0
2.903280040E-1,-3.697950125E0,7.942950249E0,-3.964950085E0
2.928615450E-1,-3.655050278E0,7.951950550E0,-3.936000109E0
2.953951630E-1,-3.655050278E0,7.986000538E0,-3.952950239E0
2.979289320E-1,-3.625950098E0,7.974000454E0,-3.939000130E0
3.004625450E-1,-3.592050076E0,7.966950417E0,-3.892950296E0
3.029961820E-1,-3.597000122E0,7.990950584E0,-3.895050287E0
3.055330090E-1,-3.576000214E0,7.990950584E0,-3.963000298E0
3.080634290E-1,-3.553950071E0,7.975950241E0,-3.985950232E0
3.105970420E-1,-3.595050097E0,7.974000454E0,-3.934050083E0
3.131305810E-1,-3.633000135E0,7.966950417E0,-3.922050238E0
3.156643500E-1,-3.625950098E0,7.971000195E0,-3.963000298E0
3.181979620E-1,-3.637950182E0,7.993050575E0,-3.948000193E0
3.207315010E-1,-3.652050257E0,8.002050400E0,-3.931050301E0
3.232652680E-1,-3.637950182E0,8.010000229E0,-3.955050230E0
3.257988860E-1,-3.693000078E0,7.983000278E0,-3.915000200E0
3.283324440E-1,-3.717000246E0,8.010000229E0,-3.880950212E0
3.308662110E-1,-3.721950293E0,8.038050652E0,-3.862050295E0
3.333998290E-1,-3.724050283E0,8.023950577E0,-3.880950212E0
3.359333670E-1,-3.727050066E0,8.005050659E0,-3.915000200E0
3.384671620E-1,-3.712050200E0,8.002050400E0,-3.886050224E0
3.410007800E-1,-3.730950117E0,7.971000195E0,-3.867000103E0
3.435343180E-1,-3.706950188E0,7.926000595E0,-3.892950296E0
3.460680850E-1,-3.697950125E0,7.918950558E0,-3.907050133E0
3.486016310E-1,-3.649950266E0,7.935000420E0,-3.862050295E0
3.511352440E-1,-3.580050230E0,7.933050156E0,-3.832950115E0
3.536690140E-1,-3.580050230E0,7.882950306E0,-3.891000271E0
3.562025540E-1,-3.552000284E0,7.864050388E0,-3.927000284E0
3.587361570E-1,-3.540000200E0,7.891950607E0,-3.915000200E0
3.612696980E-1,-3.489000082E0,7.882950306E0,-3.895050287E0
3.638034650E-1,-3.439050198E0,7.852050304E0,-3.831000090E0
3.663370830E-1,-3.445950270E0,7.867950439E0,-3.799950123E0
3.688708550E-1,-3.481950283E0,7.911000252E0,-3.807000160E0
3.714043950E-1,-3.505950212E0,7.888050556E0,-3.735000134E0
3.739380090E-1,-3.532950163E0,7.882950306E0,-3.747000217E0
3.764715490E-1,-3.553950071E0,7.923000336E0,-3.724950075E0
3.790053210E-1,-3.612000227E0,7.897050381E0,-3.766050100E0
3.815389390E-1,-3.601950169E0,7.926000595E0,-3.796950102E0
3.840724770E-1,-3.643050194E0,7.950000286E0,-3.802050114E0
3.866062440E-1,-3.652050257E0,8.010000229E0,-3.831000090E0
3.891397800E-1,-3.655050278E0,7.966950417E0,-3.766050100E0
3.916736240E-1,-3.667050123E0,7.978950500E0,-3.787950277E0
3.942071650E-1,-3.709950209E0,7.950000286E0,-3.748950243E0
3.967407030E-1,-3.727050066E0,7.974000454E0,-3.699000120E0
3.992743110E-1,-3.706950188E0,7.947000504E0,-3.718050241E0
4.018080810E-1,-3.741000175E0,7.939950466E0,-3.778050184E0
4.043416210E-1,-3.765000105E0,7.951950550E0,-3.808950186E0
4.068752340E-1,-3.813000202E0,7.935000420E0,-3.876000166E0
4.094090190E-1,-3.849000216E0,7.903950214E0,-3.900000095E0
4.119425590E-1,-3.853050232E0,7.926000595E0,-3.880950212E0
4.144761730E-1,-3.904050112E0,7.890000343E0,-3.888000250E0
4.170097130E-1,-3.930000305E0,7.885050297E0,-3.847950220E0
4.195434890E-1,-3.898950100E0,7.866000175E0,-3.840000153E0
4.220771070E-1,-3.886950254E0,7.825050354E0,-3.802050114E0
4.246108740E-1,-3.898950100E0,7.782000542E0,-3.757050276E0
4.271444140E-1,-3.942000151E0,7.774950504E0,-3.697050095E0
4.296780480E-1,-3.934950113E0,7.746000290E0,-3.694050074E0
4.322115880E-1,-3.918000221E0,7.750950336E0,-3.703950167E0
4.347453550E-1,-3.949050188E0,7.756050587E0,-3.724950075E0
4.372789730E-1,-3.952050209E0,7.705050468E0,-3.760950089E0
4.398125200E-1,-3.898950100E0,7.693950176E0,-3.790050268E0
4.423462880E-1,-3.829950094E0,7.678950310E0,-3.826050282E0
4.448798280E-1,-3.784050226E0,7.612050533E0,-3.912000179E0
4.474134410E-1,-3.765000105E0,7.579050541E0,-4.006050110E0
4.499472110E-1,-3.765000105E0,7.606950283E0,-4.101000309E0
4.524808280E-1,-3.709950209E0,7.681950569E0,-4.144950390E0
4.550143670E-1,-3.643050194E0,7.789050579E0,-4.212000370E0
4.575481340E-1,-3.682950258E0,7.734000206E0,-4.342950344E0
4.600816690E-1,-3.882000208E0,7.594950199E0,-4.386000156E0
4.626152830E-1,-4.078950405E0,7.573950291E0,-4.437000275E0
4.651490520E-1,-4.174050331E0,7.603050232E0,-4.336050034E0
4.676825920E-1,-4.219950199E0,7.629000187E0,-4.219050407E0
4.702162060E-1,-4.273050308E0,7.609950542E0,-4.129950047E0
4.727497460E-1,-4.270050049E0,7.569000244E0,-3.997950077E0
4.752835130E-1,-4.273050308E0,7.582950592E0,-3.855000257E0
4.778171310E-1,-4.309050083E0,7.612050533E0,-3.651000261E0
4.803509170E-1,-4.222050190E0,7.626000404E0,-3.579000235E0
4.828844570E-1,-4.167000294E0,7.624050140E0,-3.634050131E0
4.854180710E-1,-4.157999992E0,7.677000523E0,-3.694050074E0
4.879516110E-1,-4.138050079E0,7.749000549E0,-3.736950159E0
4.904853890E-1,-4.057050228E0,7.834950447E0,-3.747000217E0
4.930190060E-1,-4.071000099E0,7.842000484E0,-3.775950193E0
4.955525440E-1,-4.035000324E0,7.843950272E0,-3.790050268E0
4.980863120E-1,-4.014000416E0,7.762950420E0,-3.855000257E0
5.006198280E-1,-3.954000235E0,7.741050243E0,-3.963000298E0
5.031536720E-1,-3.892050266E0,7.552050591E0,-4.033950329E0
5.056872130E-1,-3.973050117E0,7.531050205E0,-4.080000401E0
5.082208280E-1,-4.219950199E0,7.684050560E0,-4.108950138E0
5.107543780E-1,-4.431000233E0,8.035950661E0,-4.096950054E0
5.132881450E-1,-4.462050438E0,8.182050705E0,-3.964950085E0
5.158216850E-1,-4.263000011E0,8.082000732E0,-3.840000153E0
5.183552990E-1,-3.997050285E0,7.885050297E0,-3.799950123E0
5.208890860E-1,-3.838950157E0,7.797000408E0,-3.864000082E0
5.234226260E-1,-3.849000216E0,7.789050579E0,-3.904950142E0
5.259562400E-1,-3.946950197E0,7.797000408E0,-4.000950336E0
5.284900090E-1,-4.090950012E0,7.819950581E0,-4.080000401E0
5.310235500E-1,-4.179000378E0,7.768050194E0,-4.171050072E0
5.335571630E-1,-4.167000294E0,7.798950195E0,-4.228050232E0
5.360907030E-1,-4.162050247E0,7.822950363E0,-4.243050098E0
5.386244710E-1,-4.098000050E0,7.828050137E0,-4.207050323E0
5.411581070E-1,-3.954000235E0,7.852050304E0,-4.156949997E0
5.436916450E-1,-3.865050077E0,7.918950558E0,-4.033950329E0
5.462254130E-1,-3.753000259E0,7.918950558E0,-3.919050217E0
5.487590300E-1,-3.664050102E0,7.878000259E0,-3.855000257E0
5.512925500E-1,-3.619050264E0,7.891950607E0,-3.778050184E0
5.538263170E-1,-3.549000263E0,7.899000168E0,-3.747000217E0
5.563599340E-1,-3.475050211E0,7.891950607E0,-3.781050205E0
5.588934730E-1,-3.420000076E0,7.885050297E0,-3.771000147E0
5.614272640E-1,-3.415050268E0,7.866000175E0,-3.760950089E0
5.639608810E-1,-3.397950172E0,7.840050220E0,-3.772950172E0
5.664944200E-1,-3.361950159E0,7.878000259E0,-3.736950159E0
5.690281870E-1,-3.373950243E0,7.891950607E0,-3.658050060E0
5.715617940E-1,-3.364950180E0,7.861050606E0,-3.661050081E0
5.740953330E-1,-3.322050095E0,7.911000252E0,-3.651000261E0
5.766291000E-1,-3.324000120E0,7.933050156E0,-3.631950140E0
5.791626410E-1,-3.327000141E0,7.933050156E0,-3.670050144E0
5.816962260E-1,-3.406050205E0,7.923000336E0,-3.670050144E0
5.842297660E-1,-3.384000063E0,7.950000286E0,-3.712950230E0
5.867636110E-1,-3.364950180E0,7.986000538E0,-3.712950230E0
5.892971510E-1,-3.397950172E0,7.990950584E0,-3.802050114E0
5.918309180E-1,-3.406050205E0,7.975950241E0,-3.855000257E0
5.943644590E-1,-3.376950264E0,7.999950409E0,-3.876000166E0
5.968980720E-1,-3.348000050E0,8.050050735E0,-3.922050238E0
5.994316130E-1,-3.331050158E0,8.019000053E0,-3.915000200E0
6.019653890E-1,-3.348000050E0,7.978950500E0,-3.847950220E0
6.044990060E-1,-3.391050100E0,7.998000145E0,-3.843000174E0
6.070325450E-1,-3.420000076E0,8.035950661E0,-3.795000076E0
6.095663120E-1,-3.418050051E0,7.987950325E0,-3.766050100E0
6.120998480E-1,-3.439050198E0,7.983000278E0,-3.796950102E0
6.146336930E-1,-3.477000237E0,8.014050484E0,-3.763950109E0
6.171672330E-1,-3.445950270E0,8.029050827E0,-3.819000244E0
6.197008480E-1,-3.477000237E0,8.034000397E0,-3.871950150E0
6.222343870E-1,-3.496950150E0,8.005050659E0,-3.900000095E0
6.247681540E-1,-3.513000250E0,8.035950661E0,-3.910050154E0
6.273017720E-1,-3.540000200E0,8.011950493E0,-3.940950155E0
6.298353100E-1,-3.633000135E0,8.047950745E0,-3.960000277E0
6.323690580E-1,-3.636000156E0,8.034000397E0,-3.972000122E0
6.349025990E-1,-3.670950174E0,8.022000313E0,-3.940950155E0
6.374362120E-1,-3.730950117E0,8.014050484E0,-3.936000109E0
6.399697530E-1,-3.793950081E0,8.035950661E0,-4.006050110E0
6.425035150E-1,-3.870000124E0,8.067000389E0,-4.033950329E0
6.450371320E-1,-3.940050125E0,8.074049950E0,-4.093950272E0
6.475708990E-1,-4.042950153E0,8.058000565E0,-4.195050240E0
6.501044400E-1,-4.098000050E0,8.034000397E0,-4.281000137E0
6.526380390E-1,-4.134000301E0,7.990950584E0,-4.333950043E0
6.551718090E-1,-4.141050339E0,7.983000278E0,-4.449000359E0
6.577053490E-1,-4.099950314E0,7.962000370E0,-4.525050163E0
6.602389620E-1,-3.979950190E0,7.902000427E0,-4.597050190E0
6.627725170E-1,-3.814950228E0,7.911000252E0,-4.695000172E0
6.653062840E-1,-3.688050270E0,7.902000427E0,-4.834050179E0
6.678398250E-1,-3.576000214E0,7.878000259E0,-4.807950020E0
6.703736690E-1,-3.541950226E0,7.921050549E0,-4.729050159E0
6.729071940E-1,-3.472950220E0,7.930950165E0,-4.603950024E0
6.754408100E-1,-3.475050211E0,7.938000202E0,-4.437000275E0
6.779743480E-1,-3.523050070E0,7.951950550E0,-4.195050240E0
6.805081150E-1,-3.616050243E0,7.950000286E0,-4.063050270E0
6.830417370E-1,-3.673950195E0,8.005050659E0,-3.940950155E0
6.855752750E-1,-3.717000246E0,8.041049957E0,-3.886050224E0
6.881090420E-1,-3.754950285E0,8.059950829E0,-3.867000103E0
6.906426600E-1,-3.772050142E0,8.023950577E0,-3.838050127E0
6.931762180E-1,-3.760050297E0,8.031000137E0,-3.852000237E0
6.957097570E-1,-3.748050213E0,8.043000221E0,-3.852000237E0
6.982435240E-1,-3.700050116E0,8.014050484E0,-3.799950123E0
7.007771410E-1,-3.649950266E0,7.962000370E0,-3.783000231E0
7.033109040E-1,-3.571050167E0,7.987950325E0,-3.700950146E0
7.058444440E-1,-3.541950226E0,7.971000195E0,-3.694050074E0
7.083780570E-1,-3.504000187E0,8.006999969E0,-3.649050236E0
7.109118270E-1,-3.469950199E0,8.023950577E0,-3.654000282E0
7.134453670E-1,-3.433950186E0,8.047950745E0,-3.679950237E0
7.159789810E-1,-3.427050114E0,8.107950211E0,-3.667950153E0
7.185125210E-1,-3.397950172E0,8.110050201E0,-3.658050060E0
7.210462880E-1,-3.430050135E0,8.137050629E0,-3.706050158E0
7.235798960E-1,-3.436950207E0,8.146050453E0,-3.703950167E0
7.261136630E-1,-3.528000116E0,8.163000107E0,-3.784950256E0
7.286472030E-1,-3.597000122E0,8.191950798E0,-3.868950129E0
7.311808170E-1,-3.667050123E0,8.218050003E0,-3.988950253E0
7.337143470E-1,-3.730950117E0,8.248950005E0,-4.056000233E0
7.362481140E-1,-3.754950285E0,8.203949928E0,-4.036950111E0
7.387817320E-1,-3.786000252E0,8.196000099E0,-4.069950104E0
7.413152700E-1,-3.742950201E0,8.194050789E0,-4.024950027E0
7.438490580E-1,-3.718950272E0,8.167950630E0,-4.009950161E0
7.463825980E-1,-3.685950279E0,8.170050621E0,-3.984000206E0
7.489162110E-1,-3.645000219E0,8.200950623E0,-3.970050097E0
7.514499810E-1,-3.585000277E0,8.161050797E0,-3.948000193E0
7.539835210E-1,-3.505950212E0,8.173049927E0,-4.012950420E0
7.565171340E-1,-3.430050135E0,8.146050453E0,-4.012950420E0
7.590506750E-1,-3.385950089E0,8.104949951E0,-4.012950420E0
7.615844420E-1,-3.412950277E0,8.065050125E0,-3.963000298E0
7.641180450E-1,-3.415050268E0,8.026050568E0,-3.924000263E0
7.666518120E-1,-3.433950186E0,7.971000195E0,-3.928950071E0
7.691853520E-1,-3.439050198E0,7.918950558E0,-3.936000109E0
7.717189660E-1,-3.477000237E0,7.873050213E0,-3.928950071E0
7.742525110E-1,-3.523050070E0,7.825050354E0,-3.919050217E0
7.767862780E-1,-3.573000193E0,7.785000324E0,-3.883950233E0
7.793198960E-1,-3.561000109E0,7.762950420E0,-3.832950115E0
7.818534340E-1,-3.637950182E0,7.738950253E0,-3.816000223E0
7.843871860E-1,-3.652050257E0,7.749000549E0,-3.832950115E0
7.869208040E-1,-3.649950266E0,7.737000465E0,-3.747000217E0
7.894543420E-1,-3.691050291E0,7.732050419E0,-3.691950083E0
7.919881100E-1,-3.709950209E0,7.770000458E0,-3.679950237E0
7.945217460E-1,-3.705000162E0,7.777050495E0,-3.649050236E0
7.970552840E-1,-3.733950138E0,7.758000374E0,-3.649050236E0
7.995890520E-1,-3.781950235E0,7.758000374E0,-3.571950197E0
8.021225920E-1,-3.796050072E0,7.785000324E0,-3.558000088E0
8.046561960E-1,-3.808050156E0,7.765050411E0,-3.535950184E0
8.071899660E-1,-3.724050283E0,7.878000259E0,-3.517050266E0
8.097235830E-1,-3.480000257E0,7.981050491E0,-3.622050285E0
8.122571220E-1,-3.339000225E0,7.981050491E0,-3.903000116E0
8.147908740E-1,-3.421950102E0,7.861050606E0,-3.706050158E0
8.173244140E-1,-3.469950199E0,7.861050606E0,-3.463950157E0
8.198580280E-1,-3.481950283E0,7.849050522E0,-3.541050196E0
8.223917970E-1,-3.523050070E0,7.842000484E0,-3.748950243E0
8.249253370E-1,-3.501000166E0,7.909050465E0,-3.795000076E0
8.274589320E-1,-3.463050127E0,7.939950466E0,-3.835950136E0
8.299924720E-1,-3.457950115E0,7.834950447E0,-3.963000298E0
8.325262390E-1,-3.424950123E0,7.806000233E0,-4.113000393E0
8.350598570E-1,-3.403050184E0,7.786950588E0,-4.117949963E0
8.375936290E-1,-3.484950066E0,7.684050560E0,-4.147050381E0
8.401271700E-1,-3.528000116E0,7.669950485E0,-4.228050232E0
8.426607830E-1,-3.625950098E0,7.681950569E0,-4.312050343E0
8.451943230E-1,-3.649950266E0,7.594950199E0,-4.330950260E0
8.477280910E-1,-3.676050186E0,7.618950367E0,-4.348050117E0
8.502617080E-1,-3.718950272E0,7.612050533E0,-4.377000332E0
8.527952470E-1,-3.709950209E0,7.618950367E0,-4.473000050E0
8.553290140E-1,-3.625950098E0,7.609950542E0,-4.570950031E0
8.578625350E-1,-3.636000156E0,7.582950592E0,-4.501049995E0
8.603963790E-1,-3.736050129E0,7.564050198E0,-4.339050293E0
8.629299200E-1,-3.762000084E0,7.485000134E0,-4.248000145E0
8.654634580E-1,-3.748050213E0,7.429950237E0,-4.260000229E0
8.679970720E-1,-3.757950068E0,7.411050320E0,-4.256999969E0
8.705308410E-1,-3.877050161E0,7.392000198E0,-4.281000137E0
8.730644580E-1,-4.012050152E0,7.393950462E0,-4.276050091E0
8.755979970E-1,-4.051949978E0,7.282050133E0,-4.240050316E0
8.781317830E-1,-4.110000134E0,7.329000473E0,-4.294950008E0
8.806653240E-1,-4.143000126E0,7.320000172E0,-4.327050209E0
8.831989370E-1,-4.111950397E0,7.320000172E0,-4.408050060E0
8.857324770E-1,-4.027950287E0,7.324950218E0,-4.462950230E0
8.882662450E-1,-3.967950106E0,7.413000584E0,-4.470000267E0
8.907998620E-1,-4.018949986E0,7.512000561E0,-4.396049976E0
8.933336290E-1,-3.988050222E0,7.564050198E0,-4.252050400E0
8.958671700E-1,-3.979950190E0,7.375050545E0,-4.033950329E0
8.984007880E-1,-3.733950138E0,7.035000324E0,-3.982050180E0
9.009345570E-1,-3.444000244E0,6.774000168E0,-4.120950222E0
9.034680980E-1,-2.979000092E0,6.771000385E0,-4.209000111E0
9.060017110E-1,-2.524050236E0,7.143000126E0,-4.096950054E0
9.085352510E-1,-2.254050016E0,7.630950451E0,-3.867000103E0
9.110690180E-1,-2.278050184E0,8.125050545E0,-3.627000093E0
9.136026350E-1,-2.407050133E0,8.476950645E0,-3.511950254E0
9.161361740E-1,-2.706000090E0,8.733000755E0,-3.493050098E0
9.186699130E-1,-3.018000126E0,8.782950401E0,-3.607950211E0
9.212034530E-1,-3.343050241E0,8.673000336E0,-3.772950172E0
9.237370670E-1,-3.636000156E0,8.592000008E0,-3.864000082E0
9.262708360E-1,-3.646950245E0,8.452950478E0,-3.979050159E0
9.288044530E-1,-3.612000227E0,8.446050644E0,-4.516050339E0
9.313379920E-1,-3.661950111E0,8.119950294E0,-4.537050247E0
9.338717590E-1,-3.693000078E0,8.005050659E0,-4.164000034E0
9.364053000E-1,-3.583050251E0,8.071949959E0,-4.165950298E0
9.389389130E-1,-3.504000187E0,8.002050400E0,-4.256999969E0
9.414726820E-1,-3.370050192E0,8.055000305E0,-4.261950016E0
9.440063000E-1,-3.190050125E0,8.127000809E0,-4.111050129E0
9.465398380E-1,-3.007950068E0,8.248950005E0,-3.988950253E0
9.490736290E-1,-2.850000143E0,8.371050835E0,-3.915000200E0
9.516071700E-1,-2.745000124E0,8.413949966E0,-3.751950264E0
9.541407830E-1,-2.617950201E0,8.436000824E0,-3.663000107E0
9.566745520E-1,-2.545950174E0,8.587050438E0,-3.709050179E0
9.592080830E-1,-2.460000038E0,8.659049988E0,-3.823950291E0
9.617416960E-1,-2.407050133E0,8.572050095E0,-3.855000257E0
9.642752370E-1,-2.539050102E0,8.452950478E0,-3.852000237E0
9.668090040E-1,-2.617950201E0,8.320950508E0,-3.828000069E0
9.693426260E-1,-2.716050148E0,8.272950172E0,-3.922050238E0
9.718761650E-1,-2.803950071E0,8.328000069E0,-3.939000130E0
9.744099320E-1,-2.875950098E0,8.389950752E0,-3.804000139E0
9.769434730E-1,-3.037050247E0,8.410050392E0,-3.630000114E0
9.794770860E-1,-3.295050144E0,8.437950134E0,-3.670050144E0
9.820108550E-1,-3.568050146E0,8.508000374E0,-3.618000269E0
9.845444730E-1,-3.745950222E0,8.500950813E0,-3.651000261E0
9.870780110E-1,-3.937050104E0,8.367000580E0,-3.751950264E0
9.896118060E-1,-4.018949986E0,8.338050842E0,-3.972000122E0
9.921453470E-1,-4.123950005E0,8.203949928E0,-4.056000233E0
9.946789600E-1,-4.074000359E0,8.138999939E0,-4.159049988E0
9.972127290E-1,-3.966000080E0,8.170050621E0,-4.223999977E0
9.997462560E-1,-3.952050209E0,8.010000229E0,-4.147050381E0
1.002279869E0,-3.922950268E0,7.959000587E0,-4.204050064E0
1.004813410E0,-3.841050148E0,7.990950584E0,-4.293000221E0
1.007347177E0,-3.844050169E0,8.017050743E0,-4.414950371E0
1.009880794E0,-3.916050196E0,8.092950821E0,-4.558950424E0
1.012414552E0,-3.982950211E0,8.079000473E0,-4.504050255E0
1.014948092E0,-3.925050259E0,8.127000809E0,-4.705049992E0
1.017481705E0,-3.985050201E0,8.218050003E0,-4.936950207E0
1.020015246E0,-4.042950153E0,8.232000351E0,-5.227050304E0
1.022549009E0,-4.110000134E0,8.304000854E0,-5.457000256E0
1.025082627E0,-4.165050030E0,8.338050842E0,-5.661000252E0
1.027616165E0,-4.190999985E0,8.315999985E0,-5.737050056E0
1.030149932E0,-4.299000263E0,8.386050224E0,-5.737050056E0
1.032683521E0,-4.390050411E0,8.476950645E0,-5.778000355E0
1.035217059E0,-4.450050354E0,8.512949944E0,-5.694000244E0
1.037750826E0,-4.402050018E0,8.419050217E0,-5.404050350E0
1.040284444E0,-4.263000011E0,8.290050507E0,-5.212950230E0
1.042817977E0,-4.134000301E0,8.089050293E0,-5.028000355E0
1.045351744E0,-3.982950211E0,7.945050240E0,-4.765050411E0
1.047885362E0,-3.832050085E0,7.885050297E0,-4.585050106E0
1.050418900E0,-3.709950209E0,7.849050522E0,-4.534950256E0
1.052952654E0,-3.601950169E0,7.903950214E0,-4.506000042E0
1.055486194E0,-3.432000160E0,7.969050407E0,-4.492050171E0
1.058019807E0,-3.159000158E0,8.047950745E0,-4.492050171E0
1.060553577E0,-2.959950209E0,8.029050827E0,-4.659000397E0
1.063087126E0,-2.803950071E0,7.926000595E0,-4.837050438E0
1.065620740E0,-2.794950247E0,7.819950581E0,-5.004000187E0
1.068154509E0,-2.910000086E0,7.717050552E0,-5.020950317E0
1.070688049E0,-3.015000105E0,7.705050468E0,-4.923000336E0
1.073221658E0,-3.097050190E0,7.689000130E0,-4.738950253E0
1.075755198E0,-3.066000223E0,7.825050354E0,-4.525050163E0
1.078288965E0,-3.049050093E0,7.975950241E0,-4.140000343E0
1.080822583E0,-2.802000046E0,8.340000153E0,-3.934050083E0
1.083356389E0,-2.641950130E0,8.470050812E0,-3.691950083E0
1.085889929E0,-2.914950132E0,8.517000198E0,-3.462000132E0
1.088423543E0,-2.872050047E0,8.743050575E0,-3.313050270E0
1.090957312E0,-2.653950214E0,8.896050453E0,-3.246000051E0
1.093490857E0,-2.613000154E0,8.890950203E0,-3.298950195E0
1.096024471E0,-2.730000019E0,8.841000557E0,-3.337050200E0
1.098558011E0,-2.661000013E0,8.965050697E0,-3.382950068E0
1.101091779E0,-2.577000141E0,8.970000267E0,-3.469050169E0
1.103625328E0,-2.497950077E0,8.926950455E0,-3.502950191E0
1.106158941E0,-2.421000004E0,8.838000298E0,-3.574950218E0
1.108692711E0,-2.409000158E0,8.713950157E0,-3.558000088E0
1.111226251E0,-2.509950161E0,8.640000343E0,-3.571950197E0
1.113759855E0,-2.682000160E0,8.521950722E0,-3.543000221E0
1.116293395E0,-2.943000078E0,8.449950218E0,-3.579000235E0
1.118827239E0,-3.307050228E0,8.652000427E0,-4.019999981E0
1.121360780E0,-3.802950144E0,8.673000336E0,-4.135050297E0
1.123894523E0,-4.105050087E0,8.388000488E0,-3.643950224E0
1.126428063E0,-4.330049992E0,8.206049919E0,-3.397050142E0
1.128961677E0,-4.383000374E0,8.058000565E0,-3.220050097E0
1.131495446E0,-4.336950302E0,8.077050209E0,-2.940000057E0
1.134028991E0,-4.279950142E0,8.128950119E0,-2.784000158E0
1.136562605E0,-4.024050236E0,8.224950790E0,-2.784000158E0
1.139096145E0,-3.649950266E0,8.383049965E0,-2.869950056E0
1.141629913E0,-3.343050241E0,8.493000031E0,-3.201000214E0
1.144163516E0,-3.172950268E0,8.545949936E0,-3.493050098E0
1.146697283E0,-3.076950073E0,8.532000542E0,-3.747000217E0
1.149230824E0,-3.123000145E0,8.455050468E0,-4.069950104E0
1.151764437E0,-3.219000101E0,8.319000244E0,-4.336050034E0
1.154297967E0,-3.432000160E0,8.194050789E0,-4.386000156E0
1.156831735E0,-3.513000250E0,8.158050537E0,-4.446000099E0
1.159365352E0,-3.592050076E0,8.043000221E0,-4.521000385E0
1.161898891E0,-3.715050220E0,7.930950165E0,-4.639950275E0
1.164432653E0,-3.793950081E0,7.854000568E0,-4.710000038E0
1.166966270E0,-3.808050156E0,7.797000408E0,-4.743000031E0
1.169499809E0,-3.844050169E0,7.708050251E0,-4.870050430E0
1.172033576E0,-3.886950254E0,7.543050289E0,-5.019000053E0
1.174567111E0,-3.973050117E0,7.440000534E0,-5.197950363E0
1.177100725E0,-4.047000408E0,7.488000393E0,-5.245950222E0
1.179634494E0,-4.039950371E0,7.521000385E0,-5.044950008E0
1.182168034E0,-3.955950260E0,7.570950508E0,-4.842000008E0
1.184701653E0,-3.856050253E0,7.738950253E0,-4.600050449E0
1.187235422E0,-3.682950258E0,7.933050156E0,-4.363049984E0
1.189768963E0,-3.517950058E0,8.005050659E0,-4.116000175E0
1.192302576E0,-3.352950096E0,8.050050735E0,-3.955050230E0
1.194836111E0,-3.262050152E0,8.050050735E0,-3.883950233E0
1.197369956E0,-3.190050125E0,7.987950325E0,-3.898050070E0
1.199903496E0,-3.054000139E0,7.974000454E0,-3.916950226E0
1.202437263E0,-3.046050072E0,7.962000370E0,-3.928950071E0
1.204970799E0,-3.079950094E0,8.010000229E0,-3.916950226E0
1.207504412E0,-3.075000048E0,8.082000732E0,-3.907050133E0
1.210037953E0,-3.171000242E0,8.098050117E0,-3.915000200E0
1.212571720E0,-3.268950224E0,8.163000107E0,-3.883950233E0
1.215105352E0,-3.364950180E0,8.218050003E0,-3.828000069E0
1.217639119E0,-3.516000271E0,8.254050255E0,-3.748950243E0
1.220172660E0,-3.646950245E0,8.308950424E0,-3.682050228E0
1.222706198E0,-3.772050142E0,8.282999992E0,-3.649050236E0
1.225239778E0,-3.894000292E0,8.251950264E0,-3.627000093E0
1.227773547E0,-4.006950378E0,8.176950455E0,-3.618000269E0
1.230307164E0,-4.078950405E0,8.170050621E0,-3.594000101E0
1.232840703E0,-4.138050079E0,8.134050369E0,-3.649050236E0
1.235374456E0,-4.206000328E0,8.067000389E0,-3.682050228E0
1.237907997E0,-4.194000244E0,8.023950577E0,-3.658050060E0
1.240441610E0,-4.203000069E0,8.014050484E0,-3.661050081E0
1.242975379E0,-4.182000160E0,8.026050568E0,-3.673050165E0
1.245508901E0,-4.147950172E0,8.005050659E0,-3.715950251E0
1.248042514E0,-4.123950005E0,7.974000454E0,-3.852000237E0
1.250576055E0,-4.021049976E0,7.933050156E0,-3.940950155E0
1.253109899E0,-3.916050196E0,7.885050297E0,-4.045950413E0
1.255643414E0,-3.838950157E0,7.830000401E0,-4.159049988E0
1.258176953E0,-3.825000286E0,7.834950447E0,-4.171050072E0
1.260710720E0,-3.801000118E0,7.777050495E0,-4.212000370E0
1.263244337E0,-3.921000242E0,7.725000381E0,-4.348050117E0
1.265777876E0,-3.982950211E0,7.777050495E0,-4.396049976E0
1.268311643E0,-4.074000359E0,7.813050270E0,-4.354950428E0
1.270845260E0,-4.123950005E0,7.909050465E0,-4.294950008E0
1.273378799E0,-4.083000183E0,7.921050549E0,-4.272000313E0
1.275912552E0,-4.087950230E0,7.966950417E0,-4.219050407E0
1.278446093E0,-4.081050396E0,7.978950500E0,-4.303050041E0
1.280979706E0,-4.081050396E0,7.962000370E0,-4.417950153E0
1.283513475E0,-4.075950146E0,7.962000370E0,-4.557000160E0
1.286047112E0,-4.102950096E0,7.837050438E0,-4.815000057E0
1.288580650E0,-4.087950230E0,7.624050140E0,-5.128950119E0
1.291114417E0,-4.026000023E0,7.500000477E0,-5.413950443E0
1.293648035E0,-4.014000416E0,7.476000309E0,-5.569950104E0
1.296181554E0,-4.012050152E0,7.456050396E0,-5.553000450E0
1.298715240E0,-3.942000151E0,7.534950256E0,-5.344050407E0
1.301248901E0,-3.861000299E0,7.657950401E0,-4.984950066E0
1.303782477E0,-3.814950228E0,7.746000290E0,-4.645050049E0
1.306316244E0,-3.745950222E0,7.882950306E0,-4.236000061E0
1.308849785E0,-3.631050110E0,7.986000538E0,-3.880950212E0
1.311383398E0,-3.505950212E0,8.017050743E0,-3.589050055E0
1.313917187E0,-3.421950102E0,7.993050575E0,-3.427950144E0
1.316450727E0,-3.300000191E0,8.017050743E0,-3.357000113E0
1.318984340E0,-3.361950159E0,7.999950409E0,-3.393000126E0
1.321517881E0,-3.456000090E0,8.005050659E0,-3.415950060E0
1.324051624E0,-3.528000116E0,8.053050041E0,-3.454950094E0
1.326585242E0,-3.577950239E0,8.091000557E0,-3.451950073E0
1.329118780E0,-3.652050257E0,8.127000809E0,-3.460050106E0
1.331652547E0,-3.721950293E0,8.128950119E0,-3.460050106E0
1.334186185E0,-3.810000181E0,8.127000809E0,-3.466950178E0
1.336719952E0,-3.861000299E0,8.115000725E0,-3.493050098E0
1.339253492E0,-3.921000242E0,8.083950043E0,-3.424050093E0
1.341787106E0,-4.009050369E0,8.082000732E0,-3.358950138E0
1.344320675E0,-4.078950405E0,8.014050484E0,-3.412050247E0
1.346854442E0,-4.117050171E0,7.951950550E0,-3.414000273E0
1.349388060E0,-4.135950089E0,7.897050381E0,-3.462000132E0
1.351921598E0,-4.110000134E0,7.888050556E0,-3.607950211E0
1.354455370E0,-4.066950321E0,7.855950356E0,-3.619950056E0
1.356988911E0,-3.982950211E0,7.858950138E0,-3.697050095E0
1.359522524E0,-3.930000305E0,7.837050438E0,-3.771000147E0
1.362056294E0,-3.930000305E0,7.765050411E0,-3.883950233E0
1.364589934E0,-3.930000305E0,7.641000271E0,-4.096950054E0
1.367123472E0,-3.961050272E0,7.519050121E0,-4.357950211E0
1.369657240E0,-3.994950294E0,7.420050144E0,-4.690950394E0
1.372190780E0,-4.066950321E0,7.288950443E0,-5.026050091E0
1.374724385E0,-4.165050030E0,7.140000343E0,-5.155050278E0
1.377258154E0,-4.189050198E0,7.104000568E0,-5.140950203E0
1.379791694E0,-4.255949974E0,7.114050388E0,-4.987950325E0
1.382325308E0,-4.359000206E0,7.156950474E0,-4.659000397E0
1.384858839E0,-4.407000065E0,7.234050274E0,-4.357950211E0
1.387392606E0,-4.372950077E0,7.329000473E0,-4.056000233E0
1.389926224E0,-4.375950336E0,7.492050171E0,-3.757050276E0
1.392459762E0,-4.330049992E0,7.629000187E0,-3.534000158E0
1.394993566E0,-4.273050308E0,7.726950169E0,-3.370950222E0
1.397527107E0,-4.239000320E0,7.797000408E0,-3.345000267E0
1.400060720E0,-4.207950115E0,7.842000484E0,-3.349050045E0
1.402594490E0,-4.198050022E0,7.903950214E0,-3.357000113E0
1.405128098E0,-4.174050331E0,7.974000454E0,-3.378000259E0
1.407661636E0,-4.135950089E0,8.047950745E0,-3.378000259E0
1.410195404E0,-4.135950089E0,8.034000397E0,-3.352050066E0
1.412728944E0,-4.122000217E0,8.029050827E0,-3.298950195E0
1.415262557E0,-4.012050152E0,8.022000313E0,-3.249000072E0
1.417796327E0,-3.841050148E0,7.939950466E0,-3.100050211E0
1.420329944E0,-3.808050156E0,7.854000568E0,-2.899050236E0
1.422863483E0,-3.561000109E0,7.939950466E0,-2.808000088E0
1.425397274E0,-3.432000160E0,7.918950558E0,-2.860950232E0
1.427930891E0,-3.499050140E0,7.837050438E0,-2.908950090E0
1.430464430E0,-3.621000290E0,7.819950581E0,-2.875050068E0
1.432998197E0,-3.589950085E0,7.950000286E0,-2.848950148E0
1.435531722E0,-3.573000193E0,8.065050125E0,-2.937000036E0
1.438065336E0,-3.499050140E0,8.115000725E0,-3.151050091E0
1.440599105E0,-3.361950159E0,8.050050735E0,-3.373050213E0
1.443132645E0,-3.271050215E0,7.923000336E0,-3.538950205E0
1.445666278E0,-3.232950211E0,7.854000568E0,-3.772950172E0
1.448199818E0,-3.334050179E0,7.762950420E0,-3.948000193E0
1.450733586E0,-3.513000250E0,7.593000412E0,-4.068000317E0
1.453267203E0,-3.753000259E0,7.507050514E0,-4.177950382E0
1.455800746E0,-4.000050068E0,7.441950321E0,-4.306950092E0
1.458334514E0,-4.059000015E0,7.387050152E0,-4.450950146E0
1.460868131E0,-4.105050087E0,7.174050331E0,-4.579950333E0
1.463401670E0,-4.066950321E0,6.940950394E0,-4.834050179E0
1.465935447E0,-3.949050188E0,6.964950562E0,-5.002050400E0
1.468468987E0,-3.754950285E0,6.951000214E0,-5.107050419E0
1.471002601E0,-3.504000187E0,7.015950203E0,-5.172000408E0
1.473536370E0,-3.298050165E0,7.021050453E0,-5.088000298E0
1.476069963E0,-3.118050098E0,7.104000568E0,-4.786050320E0
1.478603502E0,-3.034050226E0,7.237950325E0,-4.402950287E0
1.481137269E0,-2.994000196E0,7.369950294E0,-4.032000065E0
1.483670886E0,-3.043950081E0,7.507050514E0,-3.613050222E0
1.486204425E0,-3.066000223E0,7.674000263E0,-3.175050259E0
1.488738192E0,-3.042000055E0,7.774950504E0,-2.794050217E0
1.491271733E0,-3.076950073E0,7.855950356E0,-2.587950230E0
1.493805346E0,-3.030000210E0,7.962000370E0,-2.455950022E0
1.496338866E0,-2.931000233E0,8.019000053E0,-2.443950176E0
1.498872634E0,-2.983950138E0,8.014050484E0,-2.434950113E0
1.501406251E0,-3.106050253E0,7.942950249E0,-2.418000221E0
1.503939789E0,-3.286050081E0,7.891950607E0,-2.473050117E0
1.506473533E0,-3.493950129E0,7.885050297E0,-2.547000170E0
1.509007150E0,-3.741000175E0,7.879950523E0,-2.551950216E0
1.511540689E0,-3.952050209E0,7.890000343E0,-2.599950075E0
1.514074456E0,-4.083000183E0,7.921050549E0,-2.632950068E0
1.516608073E0,-4.182000160E0,7.911000252E0,-2.679000139E0
1.519141612E0,-4.279950142E0,7.959000587E0,-2.842050076E0
1.521675379E0,-4.264950275E0,8.077050209E0,-2.929950237E0
1.524208919E0,-4.299000263E0,8.185050011E0,-3.091050148E0
1.526742533E0,-4.392000198E0,8.244000435E0,-3.225000143E0
1.529276302E0,-4.513950348E0,8.203949928E0,-3.313050270E0
1.531809842E0,-4.627050400E0,8.091000557E0,-3.529050112E0
1.534343456E0,-4.728000164E0,7.939950466E0,-3.799950123E0
1.536877249E0,-4.885950089E0,7.729050159E0,-4.024950027E0
1.539410790E0,-5.116050243E0,7.597950459E0,-4.285950184E0
1.541944403E0,-5.158950329E0,7.629000187E0,-4.498950005E0
1.544478172E0,-5.122950077E0,7.612050533E0,-4.626000404E0
1.547011718E0,-5.074950218E0,7.678950310E0,-4.755000114E0
1.549545331E0,-4.957950115E0,7.738950253E0,-4.801050186E0
1.552078872E0,-4.797000408E0,7.786950588E0,-4.815000057E0
1.554612639E0,-4.740000248E0,7.681950569E0,-4.842000008E0
1.557146232E0,-4.608000278E0,7.552050591E0,-4.899000168E0
1.559679999E0,-4.455000401E0,7.557000160E0,-4.827000141E0
1.562213540E0,-4.555050373E0,7.581000328E0,-4.494000435E0
1.564747153E0,-4.414050102E0,7.558950424E0,-4.165950298E0
1.567280946E0,-4.285050392E0,7.389000416E0,-4.092000008E0
1.569814487E0,-4.234050274E0,7.579050541E0,-3.871950150E0
1.572348100E0,-4.087950230E0,7.713000298E0,-3.582000256E0
1.574881641E0,-3.955950260E0,7.713000298E0,-3.642000198E0
1.577415398E0,-3.922950268E0,7.701000214E0,-3.567000151E0
1.579948938E0,-3.739050150E0,7.732050419E0,-3.318000078E0
1.582482783E0,-3.487050056E0,7.843950272E0,-3.256050110E0
1.585016323E0,-3.448950052E0,7.785000324E0,-3.345000267E0
1.587549944E0,-3.489000082E0,7.689000130E0,-3.268050194E0
1.590083482E0,-3.540000200E0,7.749000549E0,-3.148050070E0
1.592617249E0,-3.352950096E0,7.918950558E0,-3.229950190E0
1.595150867E0,-3.372000217E0,7.918950558E0,-3.462000132E0
1.597684391E0,-3.573000193E0,7.938000202E0,-3.460050106E0
1.600218158E0,-3.676050186E0,8.002050400E0,-3.439950228E0
1.602751699E0,-3.673950195E0,8.200950623E0,-3.475950241E0
1.605285312E0,-3.880050182E0,8.230050087E0,-3.565050125E0
1.607819071E0,-4.279950142E0,8.304000854E0,-3.615000248E0
1.610352612E0,-4.182000160E0,8.422050476E0,-3.666000128E0
1.612886225E0,-4.368000031E0,8.323050499E0,-3.856950283E0
1.615419995E0,-4.576950073E0,8.239950180E0,-3.910050154E0
1.617953535E0,-4.657950401E0,8.158050537E0,-3.951000214E0
1.620487073E0,-5.074950218E0,7.957050323E0,-4.015050411E0
1.623020918E0,-5.398050308E0,8.017050743E0,-3.790050268E0
1.625554458E0,-5.073000431E0,8.128950119E0,-3.658050060E0
1.628088097E0,-5.155950069E0,7.933050156E0,-3.939000130E0
1.630621636E0,-5.314050198E0,7.729050159E0,-4.008000374E0
1.633155403E0,-5.398050308E0,7.573950291E0,-3.951000214E0
1.635688944E0,-5.434050083E0,7.473000526E0,-3.997950077E0
1.638222576E0,-5.266950130E0,7.477950573E0,-4.068000317E0
1.640756345E0,-5.233050346E0,7.224000454E0,-4.255050182E0
1.643289963E0,-5.101050377E0,7.027950287E0,-4.630950451E0
1.645823501E0,-5.235000134E0,6.886050224E0,-4.770000458E0
1.648357273E0,-5.508000374E0,6.826950550E0,-4.446000099E0
1.650890891E0,-5.155950069E0,7.116000175E0,-4.044000149E0
1.653424429E0,-5.073000431E0,7.365000248E0,-3.823950291E0
1.655958196E0,-4.993050098E0,7.440000534E0,-3.769050121E0
1.658491756E0,-5.122950077E0,7.389000416E0,-3.820950270E0
1.661025369E0,-5.434050083E0,7.291050434E0,-3.792000294E0
1.663559139E0,-5.941950321E0,7.324950218E0,-3.415950060E0
1.666092679E0,-5.980050087E0,7.638000488E0,-3.196050167E0
1.668626316E0,-6.016050339E0,7.830000401E0,-3.433050156E0
1.671159857E0,-6.100050449E0,7.921050549E0,-3.582000256E0
1.673693624E0,-6.157050133E0,7.986000538E0,-3.498000145E0
1.676227241E0,-6.292050362E0,8.113050461E0,-3.334950209E0
1.678760985E0,-6.295950413E0,8.304000854E0,-3.222000122E0
1.681294525E0,-6.117000103E0,8.218050003E0,-3.256050110E0
1.683828139E0,-5.935050488E0,8.220000267E0,-3.301950216E0
1.686361679E0,-5.656950474E0,8.182050705E0,-3.454950094E0
1.688895412E0,-5.322000027E0,8.223000526E0,-3.559950113E0
1.691429030E0,-4.953000069E0,8.296950340E0,-3.642000198E0
1.693962568E0,-4.672950268E0,8.284950256E0,-3.694050074E0
1.696496335E0,-4.503000259E0,8.212950706E0,-3.771000147E0
1.699029944E0,-4.279950142E0,8.125050545E0,-3.655950069E0
1.701563711E0,-4.006950378E0,8.086050034E0,-3.565050125E0
1.704097251E0,-4.030950069E0,7.882950306E0,-3.613050222E0
1.706630865E0,-4.014000416E0,7.950000286E0,-3.562950134E0
1.709164382E0,-3.882000208E0,8.019000053E0,-3.451950073E0
1.711698150E0,-4.179000378E0,7.831950188E0,-3.498000145E0
1.714231690E0,-4.620000362E0,7.702950478E0,-3.646050215E0
1.716765303E0,-5.038950443E0,7.452000141E0,-3.747000217E0
1.719299101E0,-5.275950432E0,7.315050125E0,-3.697050095E0
1.721832718E0,-5.259000301E0,7.318050385E0,-3.643950224E0
1.724366257E0,-5.214000225E0,7.204950333E0,-3.639000177E0
1.726899795E0,-5.080050468E0,7.042050362E0,-3.670050144E0
1.729433596E0,-5.061000347E0,6.691950321E0,-3.763950109E0
1.731967137E0,-4.945950031E0,6.640050411E0,-3.792000294E0
1.734500904E0,-4.759050369E0,6.858000278E0,-3.922050238E0
1.737034444E0,-4.867050171E0,7.329000473E0,-4.012950420E0
1.739568053E0,-4.918950081E0,7.339050293E0,-4.282950401E0
1.742101593E0,-4.893000126E0,7.066050529E0,-4.554000378E0
1.744635360E0,-5.061000347E0,7.167000294E0,-4.645050049E0
1.747168978E0,-5.062950134E0,7.284000397E0,-4.783950329E0
1.749702488E0,-4.780050278E0,7.276950359E0,-4.903950214E0
1.752236256E0,-4.612950325E0,7.140000343E0,-4.971000195E0
1.754769873E0,-4.572000027E0,7.191000462E0,-4.861050129E0
1.757303640E0,-4.420950413E0,7.321950436E0,-4.735949993E0
1.759837161E0,-4.171950340E0,7.392000198E0,-4.630950451E0
1.762370774E0,-4.102950096E0,7.645950317E0,-4.444050312E0
1.764904314E0,-3.978000164E0,7.380000114E0,-4.159049988E0
1.767438082E0,-3.790950298E0,7.606950283E0,-3.892950296E0
1.769971714E0,-3.709950209E0,7.684050560E0,-3.778050184E0
1.772505253E0,-3.616050243E0,7.792050362E0,-3.727950096E0
1.775039020E0,-3.661950111E0,8.149050713E0,-3.690000057E0
1.777572560E0,-3.709950209E0,8.065050125E0,-3.712950230E0
1.780106193E0,-3.609000206E0,7.903950214E0,-3.699000120E0
1.782639962E0,-3.564000130E0,7.852050304E0,-3.574950218E0
1.785173579E0,-3.580050230E0,7.689000130E0,-3.478950262E0
1.787707118E0,-3.712050200E0,8.092950821E0,-3.285000086E0
1.790240871E0,-3.700050116E0,8.434050560E0,-3.040050030E0
1.792774411E0,-3.700050116E0,8.343000412E0,-2.656950235E0
1.795308025E0,-3.865050077E0,8.244000435E0,-2.490000010E0
1.797841794E0,-4.126950264E0,7.816050529E0,-2.587950230E0
1.800375368E0,-4.498050213E0,7.773000240E0,-2.868000031E0
1.802908981E0,-4.831050396E0,7.725000381E0,-3.100050211E0
1.805442750E0,-5.161050320E0,7.861050606E0,-3.366000175E0
1.807976291E0,-5.341050148E0,7.852050304E0,-3.642000198E0
1.810509914E0,-5.440950394E0,7.381950378E0,-3.883950233E0
1.813043455E0,-5.452950478E0,7.036950111E0,-4.207050323E0
1.815577222E0,-5.358000278E0,7.039950371E0,-4.513050079E0
1.818110839E0,-5.278950214E0,7.159050465E0,-4.651950359E0
1.820644392E0,-5.230950356E0,6.934050560E0,-4.498950005E0
1.823178159E0,-5.044050217E0,6.592050076E0,-4.129950047E0
1.825711776E0,-5.005050182E0,6.436050415E0,-3.745050192E0
1.828245315E0,-5.080050468E0,6.913050175E0,-3.547950268E0
1.830779039E0,-5.107950211E0,7.669950485E0,-3.574950218E0
1.833312579E0,-5.170950413E0,7.854000568E0,-3.739950180E0
1.835846424E0,-5.238000393E0,7.689000130E0,-3.940950155E0
1.838379964E0,-5.317050457E0,7.591050148E0,-4.105950356E0
1.840913589E0,-5.326050282E0,7.629000187E0,-4.204050064E0
1.843447128E0,-5.335950375E0,7.348950386E0,-4.108950138E0
1.845980895E0,-5.458050251E0,6.949050426E0,-3.907050133E0
1.848514436E0,-5.422050476E0,7.075950146E0,-3.579000235E0
1.851048068E0,-5.278950214E0,7.471050262E0,-3.454950094E0
1.853581837E0,-5.191950321E0,7.840050220E0,-3.433050156E0
1.856115455E0,-5.098950386E0,7.846950531E0,-3.457050085E0
1.858648993E0,-5.073000431E0,7.902000427E0,-3.378000259E0
1.861182527E0,-5.125050068E0,7.830000401E0,-3.433050156E0
1.863716294E0,-4.978950024E0,7.447050571E0,-3.385050058E0
1.866249911E0,-4.891050339E0,6.907950401E0,-3.498000145E0
1.868783678E0,-4.957950115E0,6.394950390E0,-3.667950153E0
1.871317243E0,-5.092050076E0,5.976000309E0,-3.649050236E0
1.873850856E0,-5.290050030E0,5.842050076E0,-3.499950171E0
1.876384626E0,-5.275950432E0,5.823000431E0,-3.510000229E0
1.878918166E0,-5.275950432E0,5.218950272E0,-3.421050072E0
1.881451769E0,-5.233050346E0,4.791000366E0,-3.136050224E0
1.883985310E0,-5.323950291E0,5.032950401E0,-2.959050179E0
1.886519077E0,-5.319000244E0,5.397000313E0,-3.214950085E0
1.889052694E0,-5.118000031E0,5.457000256E0,-3.618000269E0
1.891586486E0,-4.945950031E0,4.453050137E0,-4.048950195E0
1.894120026E0,-4.897950172E0,4.012050152E0,-4.315050125E0
1.896653640E0,-4.797000408E0,3.802050114E0,-4.783950329E0
1.899187180E0,-4.764000416E0,3.715050220E0,-4.875000000E0
1.901720966E0,-4.480950356E0,4.108050346E0,-4.540050030E0
1.904254584E0,-4.198050022E0,3.712950230E0,-3.979050159E0
1.906788122E0,-4.039950371E0,4.054950237E0,-3.463950157E0
1.909321889E0,-4.024050236E0,4.426949978E0,-3.274950266E0
1.911855440E0,-3.901050091E0,4.168050289E0,-3.280050039E0
1.914389053E0,-3.982950211E0,4.048050404E0,-3.481050253E0
1.916922822E0,-3.994950294E0,3.997950077E0,-3.843000174E0
1.919456363E0,-3.904050112E0,3.720000267E0,-4.092000008E0
1.921990029E0,-3.781950235E0,4.138950348E0,-4.056000233E0
1.924523799E0,-3.588000059E0,3.553050280E0,-4.261950016E0
1.927057339E0,-3.516000271E0,3.073950052E0,-4.516050339E0
1.929590952E0,-3.432000160E0,2.797950029E0,-4.365000248E0
1.932124703E0,-3.388950109E0,2.731050014E0,-4.348050117E0
1.934658243E0,-3.327000141E0,2.848050117E0,-4.473000050E0
1.937191857E0,-3.166050196E0,3.913950205E0,-4.267050266E0
1.939725397E0,-3.118050098E0,4.237950325E0,-4.449000359E0
1.942259135E0,-3.091950178E0,3.792000294E0,-4.609050274E0
1.944792753E0,-3.264000177E0,3.202950239E0,-4.582950115E0
1.947326291E0,-3.384000063E0,3.555000067E0,-4.249950409E0
1.949860058E0,-2.754000187E0,4.918050289E0,-4.602000237E0
1.952393671E0,-2.893050194E0,5.196000099E0,-4.474950314E0
1.954927438E0,-3.279000044E0,5.251050472E0,-4.396049976E0
1.957460978E0,-3.448950052E0,5.488050461E0,-4.104000092E0
1.959994592E0,-3.243000269E0,6.289950371E0,-3.673050165E0
1.962528117E0,-2.614950180E0,7.300950527E0,-3.816000223E0
1.965061884E0,-3.397950172E0,8.086050034E0,-3.694050074E0
1.967595425E0,-5.310000420E0,8.560950279E0,-3.412050247E0
1.970129038E0,-5.046000004E0,1.016505051E1,-3.321000099E0
1.972662799E0,-4.443000317E0,1.044300079E1,-4.117949963E0
1.975196416E0,-3.897000074E0,1.123605061E1,-3.772950172E0
1.977729954E0,-3.757950068E0,1.189200020E1,-4.328999996E0
1.980263722E0,-3.826950073E0,1.310895061E1,-4.141950130E0
1.982797329E0,-4.024050236E0,1.414305115E1,-4.381950378E0
1.985330868E0,-4.143000126E0,1.534095097E1,-4.621050358E0
1.987864635E0,-4.483050346E0,1.662495041E1,-4.426949978E0
1.990398175E0,-4.945950031E0,1.759005165E1,-4.638000011E0
1.992931794E0,-5.506050110E0,1.770900154E1,-4.576050282E0
1.995465563E0,-5.619000435E0,1.826295090E1,-4.561050415E0
1.997999103E0,-5.644950390E0,1.797495079E1,-4.509000301E0
2.000532717E0,-5.458050251E0,1.736505127E1,-3.625050068E0
2.003066247E0,-5.278950214E0,1.701705170E1,-2.584950209E0
2.005600014E0,-4.962000370E0,1.637804985E1,-1.768950105E0
2.008133632E0,-4.567049980E0,1.536195087E1,-1.249050021E0
2.010667399E0,-4.311000347E0,1.451700115E1,-1.261050105E0
2.013200945E0,-4.098000050E0,1.283595085E1,-1.534050107E0
2.015734558E0,-4.419000149E0,1.110405064E1,-2.197050095E0
2.018268098E0,-5.053050041E0,9.436950684E0,-3.121950150E0
2.020801866E0,-5.494050026E0,7.686000347E0,-4.405950069E0
2.023335502E0,-5.821950436E0,5.670000076E0,-5.622000217E0
2.025869269E0,-5.983050346E0,3.057000160E0,-6.103950500E0
2.028402810E0,-6.007050514E0,2.046000004E0,-5.740050316E0
2.030936348E0,-5.724000454E0,2.269050121E0,-5.062050343E0
2.033469962E0,-4.681950092E0,2.901000023E0,-5.062050343E0
2.036003731E0,-3.688050270E0,4.157999992E0,-4.915950298E0
2.038537348E0,-2.850000143E0,5.442000389E0,-4.861050129E0
2.041070887E0,-2.641950130E0,6.325950146E0,-4.951950073E0
2.043604644E0,-2.911950111E0,7.114050388E0,-5.071050167E0
2.046138184E0,-3.303000212E0,8.220000267E0,-5.035950184E0
2.048671798E0,-3.798000097E0,8.256000519E0,-4.753050327E0
2.051205567E0,-4.143000126E0,8.592000008E0,-4.312050343E0
2.053739117E0,-4.336950302E0,9.243000031E0,-3.759000063E0
2.056272731E0,-4.336950302E0,8.989050865E0,-3.361050129E0
2.058806500E0,-4.323000431E0,9.079950333E0,-2.914050102E0
2.061340041E0,-4.122000217E0,9.259950638E0,-2.620950222E0
2.063873640E0,-4.033050060E0,9.387000084E0,-2.497050047E0
2.066407409E0,-4.030950069E0,9.459000587E0,-2.454000235E0
2.068940950E0,-4.170000076E0,9.586050034E0,-2.422950029E0
2.071474563E0,-4.318050385E0,9.826950073E0,-2.539950132E0
2.074008113E0,-4.404000282E0,1.002405071E1,-2.719950199E0
2.076541880E0,-4.327950001E0,1.020105076E1,-2.995050192E0
2.079075497E0,-4.348950386E0,1.000200081E1,-3.270000219E0
2.081609036E0,-4.546050072E0,9.538050652E0,-3.381000042E0
2.084142774E0,-4.780050278E0,9.001049995E0,-3.418950081E0
2.086676314E0,-4.948050022E0,8.649000168E0,-3.393000126E0
2.089209928E0,-5.026950359E0,8.464950562E0,-3.487950087E0
2.091743697E0,-5.037000179E0,8.331000328E0,-3.601050138E0
2.094277334E0,-5.122950077E0,8.131950378E0,-3.814050198E0
2.096810873E0,-5.146950245E0,7.947000504E0,-4.048950195E0
2.099344640E0,-5.116050243E0,7.722000599E0,-4.386000156E0
2.101878181E0,-5.050950050E0,7.363050461E0,-4.750950336E0
2.104411803E0,-4.990950108E0,7.021050453E0,-4.959000111E0
2.106945572E0,-4.990950108E0,6.645000458E0,-5.059050083E0
2.109479113E0,-4.879050255E0,6.634950161E0,-5.026050091E0
2.112012726E0,-4.644000053E0,6.882000446E0,-5.019000053E0
2.114546505E0,-4.488000393E0,6.730950356E0,-4.899000168E0
2.117080046E0,-4.297049999E0,6.814950466E0,-4.564050198E0
2.119613659E0,-4.218000412E0,6.922050476E0,-4.492050171E0
2.122147428E0,-4.264950275E0,6.673050404E0,-4.429950237E0
2.124680983E0,-4.282050133E0,6.694950104E0,-4.327050209E0
2.127214596E0,-4.309050083E0,6.667950153E0,-4.300050259E0
2.129748137E0,-4.288949966E0,6.592050076E0,-4.129950047E0
2.132281904E0,-4.696950436E0,6.163050175E0,-3.883950233E0
2.134815507E0,-6.157050133E0,5.052000046E0,-3.345000267E0
2.137349046E0,-5.218950272E0,5.788950443E0,-3.220050097E0
2.139882813E0,-4.335000038E0,5.710050106E0,-3.874050140E0
2.142416353E0,-3.544950247E0,4.471950054E0,-4.185000420E0
2.144950182E0,-4.387950420E0,6.067050457E0,-3.388050079E0
2.147483722E0,-4.411950111E0,7.147050381E0,-3.910050154E0
2.150017337E0,-4.311000347E0,7.459050179E0,-4.240050316E0
2.152550876E0,-4.416000366E0,7.368000507E0,-4.048950195E0
2.155084643E0,-4.728000164E0,7.234050274E0,-3.979050159E0
2.157618261E0,-4.900050163E0,7.171050549E0,-3.982050180E0
2.160151799E0,-4.717950344E0,7.270050526E0,-4.078050137E0
2.162685566E0,-4.536000252E0,7.078050137E0,-4.256999969E0
2.165219131E0,-4.552950382E0,6.778950214E0,-4.267050266E0
2.167752744E0,-4.720050335E0,6.391050339E0,-4.192049980E0
2.170286513E0,-4.792050362E0,6.204000473E0,-4.236000061E0
2.172820131E0,-4.849950314E0,6.277950287E0,-4.165950298E0
2.175353664E0,-4.741950035E0,6.301950455E0,-4.197000027E0
2.177887431E0,-4.821000099E0,6.132000446E0,-4.141950130E0
2.180420972E0,-4.845000267E0,6.333000183E0,-3.985950232E0
2.182954585E0,-4.633950233E0,6.898050308E0,-4.030050278E0
2.185488356E0,-4.408950329E0,6.745050430E0,-3.862050295E0
2.188021896E0,-4.531050205E0,6.223050117E0,-3.546000242E0
2.190555509E0,-5.034000397E0,6.328050137E0,-3.510000229E0
2.193089050E0,-3.790950298E0,6.781050205E0,-3.595950127E0
2.195622802E0,-3.505950212E0,6.616050243E0,-3.582000256E0
2.198156420E0,-3.601950169E0,7.531050205E0,-3.535950184E0
2.200689958E0,-3.505950212E0,8.295000076E0,-3.766050100E0
2.203223725E0,-3.607050180E0,8.082000732E0,-3.771000147E0
2.205757295E0,-3.703050137E0,7.891950607E0,-3.814050198E0
2.208290908E0,-3.964050293E0,8.173049927E0,-3.579000235E0
2.210824677E0,-4.287000179E0,8.338050842E0,-3.522000074E0
2.213358295E0,-4.339950085E0,8.220000267E0,-3.427950144E0
2.215891828E0,-4.249050140E0,7.993050575E0,-3.273000240E0
2.218425595E0,-4.335000038E0,7.963950157E0,-3.166950226E0
2.220959136E0,-4.174050331E0,8.089050293E0,-3.103050232E0
2.223492749E0,-4.093050003E0,7.962000370E0,-3.145950079E0
2.226026290E0,-4.206000328E0,7.933050156E0,-3.193950176E0
2.228560134E0,-4.342050076E0,7.930950165E0,-3.250950098E0
2.231093674E0,-4.294050217E0,8.038050652E0,-3.523950100E0
2.233627442E0,-4.467000008E0,7.909050465E0,-3.613050222E0
2.236160972E0,-4.479000092E0,7.473000526E0,-3.745050192E0
2.238694585E0,-4.488000393E0,7.423050404E0,-3.736950159E0
2.241228355E0,-4.464000225E0,7.605000496E0,-3.582000256E0
2.243761895E0,-4.519050121E0,7.897050381E0,-3.442950249E0
2.246295524E0,-4.585950375E0,8.208000183E0,-3.322950125E0
2.248829293E0,-4.552950382E0,8.368950844E0,-3.262950182E0
2.251362833E0,-4.480950356E0,8.230050087E0,-3.241950035E0
2.253896447E0,-4.629000187E0,8.176950455E0,-3.354000092E0
2.256429968E0,-4.785000324E0,7.846950531E0,-3.478950262E0
2.258963735E0,-4.785000324E0,7.702950478E0,-3.454950094E0
2.261497353E0,-4.675050259E0,7.951950550E0,-3.427950144E0
2.264031120E0,-4.717950344E0,7.999950409E0,-3.333000183E0
2.266564664E0,-4.651050091E0,7.701000214E0,-3.361050129E0
2.269098278E0,-4.648950100E0,7.273950577E0,-3.292050123E0
2.271631818E0,-4.711050034E0,6.676050186E0,-3.157950163E0
2.274165586E0,-4.632000446E0,6.498000145E0,-2.884950161E0
2.276699093E0,-4.570050240E0,6.727950096E0,-2.716950178E0
2.279232706E0,-4.062000275E0,6.496050358E0,-3.033000231E0
2.281766476E0,-4.155000210E0,6.406950474E0,-3.433050156E0
2.284300093E0,-4.427999973E0,5.743950367E0,-3.763950109E0
2.286833611E0,-4.300950050E0,5.518950462E0,-3.844950199E0
2.289367379E0,-4.427999973E0,5.647950172E0,-3.499950171E0
2.291900996E0,-4.411950111E0,5.971950054E0,-3.237000227E0
2.294434535E0,-4.665000439E0,6.216000080E0,-3.136050224E0
2.296968336E0,-4.852050304E0,6.508050442E0,-3.166950226E0
2.299501943E0,-5.001000404E0,7.174050331E0,-2.976000071E0
2.302035572E0,-5.044050217E0,7.713000298E0,-2.779050112E0
2.304569030E0,-5.167950153E0,8.319000244E0,-2.722050190E0
2.307102874E0,-5.274000168E0,8.925000191E0,-2.764950037E0
2.309636415E0,-5.311950207E0,9.315000534E0,-2.872950077E0
2.312169953E0,-5.118000031E0,9.507000923E0,-3.012000084E0
2.314703715E0,-5.130000114E0,9.547050476E0,-3.079050064E0
2.317237333E0,-5.065050125E0,9.544950485E0,-3.141000032E0
2.319771100E0,-4.962000370E0,9.483000755E0,-3.241950035E0
2.322304641E0,-5.062950134E0,8.968050003E0,-3.108000040E0
2.324838269E0,-5.094000340E0,8.467050552E0,-2.904000044E0
2.327371809E0,-5.077050209E0,8.235000610E0,-2.908950090E0
2.329905577E0,-5.161050320E0,8.185050011E0,-2.925000191E0
2.332439117E0,-5.334000111E0,8.319000244E0,-2.956950188E0
2.334972731E0,-5.488950253E0,8.496000290E0,-3.033000231E0
2.337506500E0,-5.560950279E0,8.580000877E0,-3.172050238E0
2.340040040E0,-5.614050388E0,8.577000618E0,-3.238950253E0
2.342573654E0,-5.643000126E0,8.544000626E0,-3.165000200E0
2.345107413E0,-5.568000317E0,8.599050522E0,-2.920950174E0
2.347641030E0,-5.482050419E0,8.620050430E0,-2.650050163E0
2.350174569E0,-5.425050259E0,8.673000336E0,-2.494050026E0
2.352708336E0,-5.223000050E0,8.683050156E0,-2.487000227E0
2.355241871E0,-5.086950302E0,8.653950691E0,-2.629050016E0
2.357775485E0,-5.101050377E0,8.545949936E0,-2.905950069E0
2.360309254E0,-5.022000313E0,8.577000618E0,-3.166950226E0
2.362842795E0,-5.101050377E0,8.505000114E0,-3.297000170E0
2.365376422E0,-4.861950397E0,8.400000572E0,-3.286950111E0
2.367910191E0,-5.094000340E0,8.485950470E0,-3.273000240E0
2.370443732E0,-5.101050377E0,8.332950592E0,-3.427950144E0
2.372977345E0,-5.233050346E0,8.374050140E0,-3.427950144E0
2.375511095E0,-5.451000214E0,8.412000656E0,-3.390000105E0
2.378044636E0,-5.668950081E0,8.395050049E0,-3.394950151E0
2.380578249E0,-5.805000305E0,8.227950096E0,-3.550950050E0
2.383111790E0,-5.812950134E0,8.230050087E0,-3.507000208E0
2.385645576E0,-6.064050198E0,8.659049988E0,-3.445050240E0
2.388179193E0,-6.775050163E0,8.632050514E0,-3.474000216E0
2.390712960E0,-6.498000145E0,8.569950104E0,-3.922050238E0
2.393246501E0,-6.382950306E0,8.532000542E0,-4.228050232E0
2.395780114E0,-6.172050476E0,8.347050667E0,-4.125000000E0
2.398313655E0,-6.114000320E0,8.251950264E0,-3.883950233E0
2.400847422E0,-5.793000221E0,7.785000324E0,-3.850050211E0
2.403381039E0,-5.166000366E0,7.144950390E0,-4.180050373E0
2.405914598E0,-5.098950386E0,7.264950275E0,-4.039050102E0
2.408448365E0,-5.182950020E0,7.726950169E0,-3.475950241E0
2.410981906E0,-4.665000439E0,7.971000195E0,-3.400050163E0
2.413515519E0,-4.003950119E0,8.055000305E0,-3.619950056E0
2.416049283E0,-3.492000103E0,7.969050407E0,-3.724950075E0
2.418582824E0,-3.813000202E0,7.549950123E0,-3.519000053E0
2.421116437E0,-3.054000139E0,6.919950485E0,-3.667950153E0
2.423649978E0,-2.761050224E0,6.388050079E0,-3.438000202E0
2.426183822E0,-3.238050222E0,6.790950298E0,-3.346950054E0
2.428717362E0,-3.228000164E0,7.957050323E0,-3.924000263E0
2.431251129E0,-3.100950241E0,8.809950829E0,-4.470000267E0
2.433784670E0,-3.961050272E0,9.133049965E0,-4.341000080E0
2.436318283E0,-4.231950283E0,8.929050446E0,-3.579000235E0
2.438851824E0,-5.299950123E0,8.304000854E0,-3.226950169E0
2.441385668E0,-6.349050522E0,7.696050167E0,-2.892000198E0
2.443919208E0,-6.607950211E0,7.504050255E0,-2.935050249E0
2.446452780E0,-6.153000355E0,7.483050346E0,-3.301950216E0
2.448986547E0,-5.925000191E0,7.389000416E0,-3.460050106E0
2.451520164E0,-5.928000450E0,7.570950508E0,-3.108000040E0
2.454053932E0,-6.574050426E0,7.579050541E0,-2.430000067E0
2.456587463E0,-6.651000500E0,6.859950542E0,-2.434950113E0
2.459121077E0,-6.142950058E0,6.738000393E0,-3.060000181E0
2.461654617E0,-5.547000408E0,6.886050224E0,-3.630000114E0
2.464188384E0,-5.583000183E0,6.582000256E0,-3.819000244E0
2.466722011E0,-5.250000477E0,6.613050461E0,-3.900000095E0
2.469255549E0,-4.189050198E0,7.261950493E0,-3.526950121E0
2.471789316E0,-3.175950050E0,7.150050163E0,-3.333000183E0
2.474322857E0,-3.001050234E0,7.294050217E0,-3.244050264E0
2.476856485E0,-2.995950222E0,7.429950237E0,-3.157950163E0
2.479390254E0,-3.037050247E0,7.525950432E0,-3.382950068E0
2.481923872E0,-3.118050098E0,7.404000282E0,-3.808950186E0
2.484457410E0,-2.806950092E0,7.240950108E0,-4.255050182E0
2.486991197E0,-2.578950167E0,7.300950527E0,-4.444050312E0
2.489524737E0,-2.575050116E0,7.384950161E0,-4.336050034E0
2.492058350E0,-2.359050035E0,7.489950180E0,-4.045950413E0
2.494592120E0,-1.966050148E0,7.585950375E0,-3.666000128E0
2.497125646E0,-1.533000112E0,7.726950169E0,-3.589050055E0
2.499659259E0,-1.224000096E0,7.935000420E0,-3.463950157E0
2.502192800E0,-1.141950011E0,8.119950294E0,-3.424050093E0
2.504726567E0,-1.189950109E0,8.256000519E0,-3.448050261E0
2.507260209E0,-1.542000055E0,8.320950508E0,-3.358950138E0
2.509793976E0,-1.636050105E0,8.200950623E0,-3.349050045E0
2.512327516E0,-1.434000015E0,8.244000435E0,-3.232050180E0
2.514861130E0,-1.011000037E0,8.268000603E0,-3.069000244E0
2.517394674E0,-8.310000300E-1,8.292000771E0,-2.968950033E0
2.519928441E0,-1.075049996E0,8.440950394E0,-2.925000191E0
2.522462059E0,-1.200000048E0,8.592000008E0,-2.869950056E0
2.524995597E0,-1.231050014E0,8.802000046E0,-2.887050152E0
2.527529364E0,-1.201950073E0,8.901000023E0,-2.964000225E0
2.530062982E0,-1.075049996E0,8.794950485E0,-2.866050243E0
2.532596520E0,-1.081950068E0,8.515049934E0,-2.676000118E0
2.535130288E0,-1.317000031E0,8.446050644E0,-2.746050119E0
2.537663910E0,-1.185000062E0,8.532000542E0,-2.880000114E0
2.540197448E0,-8.359500170E-1,8.707050323E0,-3.055050135E0
2.542731216E0,-7.470000386E-1,8.854949951E0,-3.175050259E0
2.545264756E0,-1.257000089E0,9.178050041E0,-3.232050180E0
2.547798379E0,-1.924950123E0,9.352950096E0,-3.253950119E0
2.550332149E0,-2.622000217E0,8.977050781E0,-3.292050123E0
2.552865689E0,-2.794950247E0,8.740050316E0,-3.433050156E0
2.555399303E0,-2.857050180E0,8.709000587E0,-3.421050072E0
2.557933091E0,-3.055950165E0,8.652000427E0,-3.451950073E0
2.560466631E0,-3.448950052E0,8.527050018E0,-3.835950136E0
2.563000245E0,-3.613950253E0,8.568000793E0,-4.125000000E0
2.565534014E0,-3.844050169E0,8.593950272E0,-4.348050117E0
2.568067539E0,-3.955950260E0,8.652000427E0,-4.659000397E0
2.570601153E0,-3.985050201E0,8.548950195E0,-4.783950329E0
2.573134693E0,-3.633000135E0,8.472000122E0,-4.873050213E0
2.575668460E0,-3.837000132E0,8.413949966E0,-4.846050262E0
2.578202078E0,-4.087950230E0,8.374050140E0,-4.762050152E0
2.580735616E0,-3.976050138E0,8.307000160E0,-4.935000420E0
2.583269384E0,-4.102950096E0,8.320950508E0,-5.137950420E0
2.585802924E0,-4.000050068E0,8.185050011E0,-5.305950165E0
2.588336759E0,-3.679050207E0,8.041049957E0,-5.469000340E0
2.590870300E0,-4.432950020E0,7.849050522E0,-5.823000431E0
2.593403915E0,-5.527950287E0,8.125050545E0,-6.118050098E0
2.595937454E0,-4.339950085E0,8.563050270E0,-5.650950432E0
2.598471216E0,-3.445950270E0,8.587050438E0,-5.076000214E0
2.601004756E0,-3.207000256E0,8.710950851E0,-4.927950382E0
2.603538370E0,-2.734950066E0,8.814000130E0,-5.074050426E0
2.606072139E0,-2.569950104E0,8.805000305E0,-5.107050419E0
2.608605650E0,-2.698950052E0,8.653950691E0,-5.206050396E0
2.611139264E0,-3.106050253E0,8.557950020E0,-5.323050022E0
2.613673033E0,-3.568050146E0,8.383049965E0,-5.347050190E0
2.616206573E0,-3.796050072E0,8.259000778E0,-5.268000126E0
2.618740192E0,-3.909000158E0,8.152950287E0,-5.188950062E0
2.621273732E0,-3.769950151E0,8.161050797E0,-5.134050369E0
2.623807500E0,-3.430050135E0,8.218050003E0,-5.103000164E0
2.626341117E0,-3.196950197E0,8.278050423E0,-5.055000305E0
2.628874855E0,-3.073050261E0,8.311050415E0,-4.972950459E0
2.631408396E0,-3.106050253E0,8.131950378E0,-4.966050148E0
2.633942009E0,-3.027000189E0,8.050050735E0,-5.019000053E0
2.636475549E0,-3.148950100E0,8.191950798E0,-4.933050156E0
2.639009347E0,-3.415050268E0,8.604000092E0,-4.602000237E0
2.641542887E0,-3.613950253E0,8.725950241E0,-4.255050182E0
2.644076731E0,-3.670950174E0,8.713950157E0,-4.282950401E0
2.646610272E0,-3.825000286E0,8.698950768E0,-4.594950199E0
2.649143868E0,-4.059000015E0,8.580000877E0,-4.947000027E0
2.651677407E0,-4.299000263E0,8.440950394E0,-5.155050278E0
2.654211174E0,-4.411950111E0,8.436000824E0,-5.233950138E0
2.656744791E0,-4.471050262E0,8.428950310E0,-5.220000267E0
2.659278334E0,-4.447050095E0,8.476950645E0,-5.140950203E0
2.661812101E0,-4.285050392E0,8.553000450E0,-4.954050064E0
2.664345718E0,-4.138050079E0,8.539050102E0,-4.864950180E0
2.666879257E0,-4.042950153E0,8.497950554E0,-4.779000282E0
2.669413034E0,-3.922950268E0,8.247000694E0,-4.818000317E0
2.671946575E0,-3.778950214E0,7.509000301E0,-4.903950214E0
2.674480188E0,-2.425950050E0,7.246050358E0,-4.774050236E0
2.677013957E0,3.870000243E-1,7.866000175E0,-4.156949997E0
2.679547498E0,2.080049992E0,7.870950222E0,-3.460050106E0
2.682081111E0,2.488050222E0,8.551050186E0,-4.092000008E0
2.684614880E0,3.508050203E0,9.454050064E0,-4.659000397E0
2.687148421E0,2.095050097E0,9.394050598E0,-4.827000141E0
2.689682039E0,6.289500594E-1,8.910000801E0,-4.846050262E0
2.692215580E0,-5.505000427E-2,8.497950554E0,-4.509000301E0
2.694749424E0,9.000000544E-3,8.347050667E0,-4.228050232E0
2.697282964E0,-1.521000028E0,8.520000458E0,-4.153950214E0
2.699816716E0,-3.813000202E0,8.656050682E0,-4.317000389E0
2.702350257E0,-4.309050083E0,8.548950195E0,-4.839000225E0
2.704883870E0,-4.524000168E0,8.460000038E0,-5.325000286E0
2.707417640E0,-4.861950397E0,8.548950195E0,-5.347050190E0
2.709951161E0,-4.177050114E0,8.568000793E0,-5.115000248E0
2.712484774E0,-3.232950211E0,8.649000168E0,-4.830000401E0
2.715018315E0,-2.689050198E0,8.608050346E0,-4.357950211E0
2.717552082E0,-2.437950134E0,8.500950813E0,-3.892950296E0
2.720085709E0,-2.208000183E0,8.416950226E0,-3.844950199E0
2.722619476E0,-2.035950184E0,8.275950432E0,-3.936000109E0
2.725153016E0,-1.818000078E0,8.152950287E0,-4.057950020E0
2.727686555E0,-1.779000044E0,8.194050789E0,-4.144950390E0
2.730220183E0,-1.861050129E0,8.311050415E0,-4.195050240E0
2.732753952E0,-1.906050086E0,8.307000160E0,-4.144950390E0
2.735287570E0,-1.774950027E0,8.407050133E0,-4.153950214E0
2.737821108E0,-1.791000128E0,8.503050804E0,-4.164000034E0
2.740354884E0,-1.837050080E0,8.412000656E0,-4.189949989E0
2.742888425E0,-1.951950073E0,8.259000778E0,-4.324050426E0
2.745422038E0,-1.939950109E0,8.151000023E0,-4.360050201E0
2.747955808E0,-1.971000075E0,8.127000809E0,-4.261950016E0
2.750489377E0,-1.945050120E0,8.158050537E0,-4.201950073E0
2.753022990E0,-2.088000059E0,8.320950508E0,-4.132950306E0
2.755556531E0,-2.176950216E0,8.343000412E0,-4.231050014E0
2.758090298E0,-2.172000170E0,8.533950806E0,-4.366950035E0
2.760623939E0,-2.349000216E0,8.608050346E0,-4.363049984E0
2.763157707E0,-2.617950201E0,8.563050270E0,-4.384050369E0
2.765691247E0,-2.734950066E0,8.599050522E0,-4.317000389E0
2.768224861E0,-2.779950142E0,8.644050598E0,-4.288050175E0
2.770758445E0,-2.706000090E0,8.661000252E0,-4.353000164E0
2.773292212E0,-1.839000106E0,8.541000366E0,-4.480050087E0
2.775825830E0,-9.550500512E-1,8.320950508E0,-4.498950005E0
2.778359368E0,-1.642950058E0,8.155950546E0,-4.303050041E0
2.780893144E0,-1.786950111E0,8.185050011E0,-4.219050407E0
2.783426762E0,-1.735950112E0,8.315999985E0,-4.282950401E0
2.785960300E0,-1.878000140E0,8.425950050E0,-4.422000408E0
2.788494067E0,-2.035950184E0,8.635050774E0,-4.545000076E0
2.791027719E0,-2.191050053E0,8.782950401E0,-4.747950077E0
2.793561257E0,-2.388000011E0,8.836050034E0,-4.903950214E0
2.796095025E0,-2.506950140E0,8.842950821E0,-4.972950459E0
2.798628642E0,-2.530950069E0,8.884050369E0,-4.900950432E0
2.801162164E0,-2.491050005E0,8.971950531E0,-4.743000031E0
2.803695932E0,-2.515050173E0,8.866950035E0,-4.711950302E0
2.806229472E0,-2.578950167E0,8.809950829E0,-4.731000423E0
2.808763086E0,-2.620050192E0,8.908050537E0,-4.851000309E0
2.811296870E0,-2.818950176E0,9.058950424E0,-4.968000412E0
2.813830487E0,-2.827950239E0,9.106950760E0,-5.020950317E0
2.816364026E0,-2.826000214E0,9.098999977E0,-4.971000195E0
2.818897793E0,-2.883000135E0,8.962950706E0,-4.858050346E0
2.821431362E0,-2.971950054E0,8.821949959E0,-4.899000168E0
2.823964976E0,-3.142050266E0,8.677950859E0,-4.873050213E0
2.826498745E0,-3.331050158E0,8.541000366E0,-4.774050236E0
2.829032285E0,-3.178050041E0,8.520000458E0,-4.815000057E0
2.831565894E0,-3.232950211E0,8.653950691E0,-4.723950386E0
2.834099434E0,-3.244950056E0,8.818950653E0,-4.532999992E0
2.836633278E0,-2.812050104E0,8.818950653E0,-4.504050255E0
2.839166819E0,-2.445000172E0,8.824049950E0,-4.609050274E0
2.841700591E0,-2.428050041E0,8.836050034E0,-4.638000011E0
2.844234132E0,-2.554950237E0,8.908050537E0,-4.603950024E0
2.846767745E0,-2.476050138E0,8.937000275E0,-4.449000359E0
2.849301285E0,-2.200950146E0,8.959950447E0,-4.390950203E0
2.851835033E0,-1.710000038E0,8.953050613E0,-4.339050293E0
2.854368650E0,-8.449500203E-1,8.833950043E0,-3.891000271E0
2.856902189E0,6.700500250E-1,8.589000702E0,-3.286950111E0
2.859435956E0,3.132000208E0,8.374050140E0,-2.358000040E0
2.861969511E0,4.153950214E0,8.517000198E0,-2.607000113E0
2.864503125E0,2.713050127E0,8.793000221E0,-4.710000038E0
2.867036894E0,1.089000106E0,8.845950127E0,-6.106050491E0
2.869570511E0,-1.465950012E0,9.022950172E0,-5.934000492E0
2.872104074E0,-4.087950230E0,9.231000900E0,-5.209950447E0
2.874637841E0,-6.154950142E0,9.307950020E0,-5.031000137E0
2.877171458E0,-7.663950443E0,9.109050751E0,-5.100000381E0
2.879704997E0,-8.763000488E0,8.860050201E0,-4.837050438E0
2.882238754E0,-8.974050522E0,8.416950226E0,-4.995000362E0
2.884772295E0,-7.959000587E0,7.861050606E0,-5.397000313E0
2.887306139E0,-6.093000412E0,7.291050434E0,-5.434950352E0
2.889839679E0,-4.330049992E0,6.858000278E0,-5.007000446E0
2.892373213E0,-2.922000170E0,6.580050468E0,-4.498950005E0
2.894906826E0,-1.426950097E0,6.570000172E0,-4.225950241E0
2.897440595E0,-1.939500123E-1,6.778950214E0,-4.128000259E0
2.899974136E0,2.790000141E-1,7.023000240E0,-4.144950390E0
2.902507749E0,2.505000122E-2,7.345950127E0,-4.264050007E0
2.905041518E0,-4.549500346E-1,7.690950394E0,-4.525050163E0
2.907575059E0,-1.213950038E0,7.935000420E0,-4.614000320E0
2.910108672E0,-2.083950043E0,8.098050117E0,-4.567950249E0
2.912642204E0,-2.785050154E0,8.187000275E0,-4.504050255E0
2.915175971E0,-3.238050222E0,8.103000641E0,-4.474950314E0
2.917709588E0,-3.442050219E0,8.041049957E0,-4.336050034E0
2.920243127E0,-3.477000237E0,7.969050407E0,-4.161000252E0
2.922776865E0,-3.310050249E0,7.842000484E0,-4.149000168E0
2.925310482E0,-3.202050209E0,7.798950195E0,-4.152000427E0
2.927844250E0,-3.175950050E0,7.749000549E0,-4.093950272E0
2.930377790E0,-3.043950081E0,7.717050552E0,-4.140000343E0
2.932911384E0,-2.962950230E0,7.717050552E0,-4.255050182E0
2.935444925E0,-2.905050039E0,7.806000233E0,-4.260000229E0
2.937978692E0,-2.860050201E0,7.890000343E0,-4.245000362E0
2.940512310E0,-2.878950119E0,8.014050484E0,-4.342950344E0
2.943045844E0,-2.943000078E0,8.103000641E0,-4.317000389E0
2.945579611E0,-3.007950068E0,8.043000221E0,-4.300050259E0
2.948113152E0,-3.003000259E0,8.017050743E0,-4.328999996E0
2.950646765E0,-3.018000126E0,7.870950222E0,-4.324050426E0
2.953180534E0,-3.106050253E0,7.710000515E0,-4.333950043E0
2.955714152E0,-3.228000164E0,7.582950592E0,-4.336050034E0
2.958247690E0,-3.178050041E0,7.513950348E0,-4.374000072E0
2.960781457E0,-3.111000061E0,7.375050545E0,-4.506000042E0
2.963314992E0,-2.910000086E0,7.483050346E0,-4.534950256E0
2.965848605E0,-2.770950079E0,7.614000320E0,-4.504050255E0
2.968382375E0,-2.734950066E0,7.822950363E0,-4.450950146E0
2.970915915E0,-2.584050179E0,8.128950119E0,-4.369950294E0
2.973449518E0,-2.464050055E0,8.410050392E0,-4.288050175E0
2.975983288E0,-2.416050196E0,8.611050606E0,-4.183050156E0
2.978516828E0,-2.341950178E0,8.788050652E0,-4.168950081E0
2.981050442E0,-2.337000132E0,8.793000221E0,-4.197000027E0
2.983584187E0,-2.329950094E0,8.766000748E0,-4.269000053E0
2.986117727E0,-2.212949991E0,8.685000420E0,-4.341000080E0
2.988651341E0,-2.290050030E0,8.437950134E0,-4.318950176E0
2.991185110E0,-2.425950050E0,8.212950706E0,-4.273950100E0
2.993718650E0,-2.245950222E0,8.161050797E0,-4.225950241E0
2.996252264E0,-2.026050091E0,8.125050545E0,-4.080000401E0
2.998785804E0,-2.100000143E0,8.023950577E0,-3.948000193E0
3.001319571E0,-2.131050110E0,7.933050156E0,-3.838050127E0
3.003853175E0,-2.016000032E0,7.878000259E0,-3.739950180E0
3.006386942E0,-1.981050134E0,7.995000362E0,-3.595950127E0
3.008920483E0,-1.927950144E0,8.104949951E0,-3.559950113E0
3.011454096E0,-1.936950088E0,8.161050797E0,-3.760950089E0
3.013987645E0,-2.110050201E0,8.227950096E0,-3.972000122E0
3.016521413E0,-2.191050053E0,8.284950256E0,-4.135050297E0
3.019055030E0,-2.425950050E0,8.436000824E0,-4.204050064E0
3.021588568E0,-2.718000174E0,8.580000877E0,-4.233000278E0
3.024122327E0,-3.082050085E0,8.632050514E0,-4.219050407E0
3.026655944E0,-3.361950159E0,8.569950104E0,-4.213950157E0
3.029189483E0,-3.391050100E0,8.455050468E0,-4.192049980E0
3.031723250E0,-3.145050049E0,8.266050339E0,-4.408050060E0
3.034256852E0,-2.898000240E0,7.983000278E0,-4.312050343E0
3.036790391E0,-2.593950033E0,7.761000156E0,-4.089000225E0
3.039324158E0,-2.365950108E0,7.714950562E0,-4.161000252E0
3.041857775E0,-2.239050150E0,7.693950176E0,-4.223999977E0
3.044391306E0,-2.148000002E0,7.705050468E0,-4.209000111E0
3.046925073E0,-2.353950024E0,7.665000439E0,-4.192049980E0
3.049458613E0,-2.290050030E0,7.626000404E0,-4.429950237E0
3.051992227E0,-2.232000113E0,7.549950123E0,-4.564050198E0
3.054525785E0,-1.966050148E0,7.408950329E0,-4.626000404E0
3.057059553E0,-1.774950027E0,7.465950489E0,-4.714950085E0
3.059593170E0,-1.486950040E0,7.761000156E0,-4.432050228E0
3.062126937E0,-2.023950100E0,7.597950459E0,-4.233000278E0
3.064660459E0,-2.104950190E0,7.761000156E0,-4.558950424E0
3.067194072E0,-2.203050137E0,7.825050354E0,-4.738950253E0
3.069727841E0,-2.163000107E0,7.981050491E0,-4.735949993E0
3.072261382E0,-2.419050217E0,7.903950214E0,-4.806000233E0
3.074795004E0,-3.130050182E0,6.927000523E0,-5.160000324E0
3.077328545E0,-2.634000063E0,7.348950386E0,-5.722950459E0
3.079862312E0,-2.086050034E0,8.389950752E0,-4.377000332E0
3.082395929E0,-2.962950230E0,7.926000595E0,-3.723000288E0
3.084929482E0,-2.040000200E0,8.677950859E0,-4.765050411E0
3.087463249E0,-9.460500479E-1,9.865950584E0,-4.434000015E0
3.089996866E0,-3.940050125E0,7.923000336E0,-4.161000252E0
3.092530405E0,-2.685000181E0,8.865000725E0,-5.934000492E0
3.095064177E0,-2.629950047E0,9.106950760E0,-4.510950089E0
3.097597794E0,-4.432950020E0,7.738950253E0,-4.281000137E0
3.100131333E0,-2.337000132E0,9.484950066E0,-4.636050224E0
3.102665100E0,-3.943950176E0,7.923000336E0,-3.012000084E0
3.105198641E0,-3.373950243E0,8.709000587E0,-5.032950401E0
3.107732254E0,-4.170000076E0,7.879950523E0,-4.099050045E0
3.110266023E0,-2.481000185E0,9.432000160E0,-4.075050354E0
3.112799564E0,-3.595050097E0,8.140950203E0,-3.775950193E0
3.115333135E0,-2.524050236E0,8.536950111E0,-4.318950176E0
3.117866676E0,-2.866950035E0,8.862000465E0,-4.093950272E0
3.120400443E0,-3.286050081E0,9.157050133E0,-4.588050365E0
3.122934060E0,-3.439050198E0,8.857950211E0,-4.822050095E0
3.125467811E0,-2.773050070E0,9.078000069E0,-4.722000122E0
3.128001352E0,-2.998050213E0,8.685000420E0,-4.815000057E0
3.130534965E0,-2.661000013E0,8.716050148E0,-4.852950096E0
3.133068506E0,-2.680050135E0,8.821949959E0,-4.690950394E0
3.135602278E0,-3.373950243E0,8.625000000E0,-5.821050167E0
3.138135895E0,-3.214050055E0,8.515049934E0,-5.470950127E0
3.140669663E0,-2.899950027E0,8.200950623E0,-4.888950348E0
3.143203203E0,-2.347050190E0,8.038050652E0,-5.589000225E0
3.145736811E0,-2.941050053E0,7.011000156E0,-5.433000088E0
3.148270352E0,-3.331050158E0,7.294050217E0,-4.825050354E0
3.150804119E0,-2.088000059E0,7.609950542E0,-4.935000420E0
3.153337737E0,-9.840000272E-1,7.828050137E0,-5.313000202E0
3.155871251E0,-8.790000677E-1,7.939950466E0,-4.839000225E0
3.158405018E0,-3.315000057E0,6.489000320E0,-4.197000027E0
3.160938636E0,-5.458050251E0,6.064950466E0,-3.529050112E0
3.163472174E0,-2.965050220E0,6.739950180E0,-3.934050083E0
3.166005932E0,-5.410500169E-1,7.297950268E0,-4.564050198E0
3.168539473E0,-4.305000231E-2,7.327050209E0,-4.264050007E0
3.171073086E0,-1.506000042E0,7.188000202E0,-3.292050123E0
3.173606855E0,-4.893000126E0,7.564050198E0,-3.052050114E0
3.176140482E0,-3.397950172E0,8.841000557E0,-3.253950119E0
3.178674020E0,-1.935000062E0,8.629950523E0,-4.051050186E0
3.181207788E0,-1.600500047E-1,8.886000633E0,-4.434000015E0
3.183741328E0,-2.920500040E-1,9.909000397E0,-3.997950077E0
3.186274956E0,-2.800050020E0,9.901950836E0,-4.458000183E0
3.188808726E0,-6.154950142E0,8.070000648E0,-4.867950439E0
3.191342266E0,-4.339950085E0,8.089050293E0,-4.477050304E0
3.193875879E0,-2.220000029E0,8.019000053E0,-4.980000019E0
3.196409400E0,-2.151000023E0,7.582950592E0,-5.521950245E0
3.198943244E0,-1.105949998E0,7.854000568E0,-5.505000114E0
3.201476785E0,1.690500081E-1,7.546950340E0,-5.059050083E0
3.204010552E0,-7.810500264E-1,7.195050240E0,-4.201950073E0
3.206544083E0,-3.307050228E0,7.477950573E0,-4.549050331E0
3.209077697E0,-5.916000366E0,7.035000324E0,-4.921050072E0
3.211611237E0,-3.670950174E0,7.104000568E0,-4.669050217E0
3.214145004E0,-4.095000029E-2,8.592000008E0,-4.494000435E0
3.216678612E0,-1.590000033E0,9.186000824E0,-4.654950142E0
3.219212150E0,-2.874000072E0,8.866950035E0,-5.172000408E0
3.221745917E0,-3.460950136E0,8.344950676E0,-5.161950111E0
3.224279535E0,-3.171000242E0,8.340000153E0,-5.143050194E0
3.226813302E0,-2.629950047E0,8.368950844E0,-4.990050316E0
3.229346843E0,-2.124000072E0,8.254050255E0,-5.083050251E0
3.231880456E0,-1.813050032E0,7.774950504E0,-5.092950344E0
3.234413996E0,-2.494950056E0,7.315050125E0,-5.686950207E0
3.236947764E0,-3.055950165E0,6.762000084E0,-5.875950336E0
3.239481381E0,-3.061050177E0,6.145950317E0,-5.421000481E0
3.242014920E0,-3.163950205E0,5.839950085E0,-5.184000015E0
3.244548687E0,-3.202050209E0,5.602950096E0,-4.996950150E0
3.247082227E0,-3.063000202E0,5.485050201E0,-4.807950020E0
3.249616071E0,-3.061050177E0,5.503950119E0,-4.839000225E0
3.252149612E0,-3.766950130E0,5.314950466E0,-4.849050045E0
3.254683150E0,-4.131000042E0,4.338000298E0,-4.342950344E0
3.257216764E0,-1.533000112E0,4.503000259E0,-4.051050186E0
3.259750533E0,-1.128000021E0,6.939000130E0,-3.856950283E0
3.262284150E0,-8.530500531E-1,8.206049919E0,-4.051050186E0
3.264817689E0,-1.168950081E0,8.913000107E0,-4.068000317E0
3.267351456E0,-1.627950072E0,9.133049965E0,-4.092000008E0
3.269884997E0,-2.008949995E0,8.962950706E0,-4.084949970E0
3.272418610E0,-2.401950121E0,9.085050583E0,-3.960000277E0
3.274952379E0,-3.298050165E0,9.016050339E0,-3.775950193E0
3.277485958E0,-4.263000011E0,8.620050430E0,-3.721050262E0
3.280019571E0,-2.130000144E-1,8.922000885E0,-3.819000244E0
3.282553111E0,-1.650000066E-1,9.934950829E0,-3.165000200E0
3.285086879E0,-1.818000078E0,1.008405018E1,-3.412050247E0
3.287620516E0,-1.747950077E0,9.691050529E0,-4.161000252E0
3.290154055E0,-2.215050220E0,9.199950218E0,-4.141950130E0
3.292687822E0,-2.164950132E0,8.611050606E0,-4.410000324E0
3.295221439E0,-1.537050128E0,8.649000168E0,-4.315050125E0
3.297754950E0,-2.031000137E0,8.608050346E0,-3.934050083E0
3.300288636E0,-2.505000114E0,8.268000603E0,-4.276050091E0
3.302822297E0,-2.716050148E0,7.947000504E0,-4.807950020E0
3.305355873E0,-2.800050020E0,7.633950233E0,-4.827000141E0
3.307889640E0,-2.674950123E0,7.174050331E0,-5.208000183E0
3.310423180E0,-3.082050085E0,6.580050468E0,-6.039000511E0
3.312957025E0,-2.965050220E0,6.766950130E0,-7.222050190E0
3.315490593E0,-1.882050037E0,6.946050167E0,-8.985000610E0
3.318024208E0,-2.677950144E0,6.958050251E0,-8.596950531E0
3.320557747E0,-6.628950119E0,9.681000710E0,-4.176000118E0
3.323091514E0,-1.030095005E1,1.314900017E1,1.969500035E-1
3.325625142E0,-1.100700092E1,1.396395111E1,2.116950035E0
3.328158680E0,-5.853000164E0,1.185105038E1,4.309500158E-1
3.330692447E0,8.610000610E-1,7.660050392E0,-2.995050192E0
3.333226065E0,2.908950090E0,4.887000084E0,-5.016000271E0
3.335759603E0,1.407000065E0,4.791000366E0,-4.837050438E0
3.338293370E0,-7.930500507E-1,6.079050064E0,-3.733050108E0
3.340826911E0,-2.031000137E0,7.665000439E0,-3.097950220E0
3.343360524E0,-2.860050201E0,8.623050690E0,-2.983050108E0
3.345894298E0,-2.284950018E0,9.490050316E0,-3.594000101E0
3.348427839E0,-2.158050060E0,9.424950600E0,-4.381950378E0
3.350961452E0,-1.918050051E0,9.202050209E0,-4.588050365E0
3.353495222E0,-1.825050116E0,8.889000893E0,-4.402950287E0
3.356028762E0,-2.215050220E0,8.568000793E0,-4.081950188E0
3.358562375E0,-1.854000092E0,8.971950531E0,-3.745050192E0
3.361095916E0,-1.891950130E0,9.645000458E0,-3.318000078E0
3.363629760E0,-2.553000212E0,1.016505051E1,-2.848950148E0
3.366163330E0,-2.509950161E0,1.040895081E1,-2.787000179E0
3.368697097E0,-2.806950092E0,1.042905045E1,-2.965950251E0
3.371230637E0,-3.075000048E0,1.000200081E1,-3.397050142E0
3.373764251E0,-3.018000126E0,9.355950356E0,-3.876000166E0
3.376298015E0,-2.902950048E0,8.713950157E0,-4.156949997E0
3.378831555E0,-2.862000227E0,8.103000641E0,-4.425000191E0
3.381365169E0,-2.874000072E0,7.534950256E0,-4.621050358E0
3.383898709E0,-3.010050058E0,7.095000267E0,-4.747950077E0
3.386432461E0,-3.046050072E0,6.829050541E0,-4.794000149E0
3.388966079E0,-3.007950068E0,6.694950104E0,-4.726950169E0
3.391499617E0,-3.190050125E0,6.598950386E0,-4.614000320E0
3.394033385E0,-3.240000248E0,6.460050106E0,-4.458000183E0
3.396566997E0,-3.312000275E0,6.355050087E0,-4.414950371E0
3.399100764E0,-3.324000120E0,6.277950287E0,-4.441950321E0
3.401634305E0,-3.268950224E0,6.211050510E0,-4.579950333E0
3.404167918E0,-3.358050108E0,6.100950241E0,-4.861050129E0
3.406701454E0,-3.262050152E0,5.872950077E0,-5.119050026E0
3.409235222E0,-3.231000185E0,5.896950245E0,-5.340000153E0
3.411768839E0,-3.432000160E0,6.055050373E0,-5.388000488E0
3.414302378E0,-3.619050264E0,6.175050259E0,-5.317950249E0
3.416836111E0,-3.748050213E0,6.382950306E0,-5.245950222E0
3.419369728E0,-4.003950119E0,6.609000206E0,-5.160000324E0
3.421903495E0,-3.979950190E0,6.799950123E0,-5.224950314E0
3.424437036E0,-4.264950275E0,6.913050175E0,-5.167050362E0
3.426970649E0,-3.930000305E0,7.176000118E0,-5.197950363E0
3.429504190E0,-4.182000160E0,7.246050358E0,-5.116950035E0
3.432037957E0,-4.114950180E0,7.270050526E0,-5.131050110E0
3.434571574E0,-3.868050098E0,7.294050217E0,-5.275050163E0
3.437105113E0,-3.985050201E0,7.333950520E0,-5.248950481E0
3.439638880E0,-3.825000286E0,7.255050182E0,-5.209950447E0
3.442172421E0,-3.769950151E0,7.444050312E0,-5.104950428E0
3.444706034E0,-3.909000158E0,7.582950592E0,-4.984950066E0
3.447239765E0,-3.757950068E0,7.774950504E0,-4.863000393E0
3.449773383E0,-3.585000277E0,7.878000259E0,-5.020950317E0
3.452306921E0,-3.754950285E0,7.962000370E0,-4.891950130E0
3.454840688E0,-3.621000290E0,8.187000275E0,-4.942050457E0
3.457374271E0,-3.784050226E0,8.367000580E0,-4.822050095E0
3.459907809E0,-3.943950176E0,8.544000626E0,-5.160000324E0
3.462441576E0,-4.135950089E0,8.527050018E0,-5.272950172E0
3.464975117E0,-4.190999985E0,8.388000488E0,-5.098050117E0
3.467508764E0,-3.754950285E0,8.428950310E0,-4.987950325E0
3.470042305E0,-3.532950163E0,8.520000458E0,-5.074050426E0
3.472576149E0,-3.742950201E0,8.623050690E0,-5.173950195E0
3.475109689E0,-3.928050280E0,8.613000870E0,-5.155050278E0
3.477643208E0,-3.676050186E0,8.625000000E0,-5.008950233E0
3.480176975E0,-3.636000156E0,8.665950775E0,-4.935000420E0
3.482710592E0,-3.396000147E0,8.608050346E0,-4.858050346E0
3.485244360E0,-3.067950249E0,8.596050262E0,-4.822050095E0
3.487777886E0,-2.766000032E0,8.640000343E0,-4.822050095E0
3.490311500E0,-2.716050148E0,8.698950768E0,-4.770000458E0
3.492845040E0,-2.257950068E0,8.746950150E0,-4.822050095E0
3.495378807E0,-1.996950150E0,8.806950569E0,-5.059050083E0
3.497912449E0,-2.091000080E0,8.922000885E0,-5.328000069E0
3.500445987E0,-2.042999983E0,8.920050621E0,-5.524050236E0
3.502979754E0,-2.509950161E0,8.824049950E0,-5.668050289E0
3.505513295E0,-2.773050070E0,8.520000458E0,-5.590950489E0
3.508047148E0,-2.838000059E0,8.248950005E0,-5.452050209E0
3.510580688E0,-2.977050066E0,8.017050743E0,-5.431050301E0
3.513114304E0,-3.202050209E0,7.843950272E0,-5.364000320E0
3.515647842E0,-3.322050095E0,7.624050140E0,-5.352000237E0
3.518181625E0,-3.328950167E0,7.485000134E0,-5.428050041E0
3.520715242E0,-3.283050060E0,7.296000481E0,-5.272950172E0
3.523248780E0,-3.046050072E0,7.111950397E0,-4.876950264E0
3.525782548E0,-2.869050026E0,6.979950428E0,-4.573050022E0
3.528316083E0,-2.818950176E0,7.000950336E0,-4.413000107E0
3.530849927E0,-2.946000099E0,7.080000401E0,-4.281000137E0
3.533383468E0,-3.123000145E0,7.234050274E0,-4.366950035E0
3.535917083E0,-3.231000185E0,7.461000443E0,-4.497000217E0
3.538450612E0,-3.327000141E0,7.638000488E0,-4.603950024E0
3.540984379E0,-3.280950069E0,7.765050411E0,-4.651950359E0
3.543517996E0,-3.276000261E0,7.897050381E0,-4.777050018E0
3.546051535E0,-3.331050158E0,7.927950382E0,-4.849050045E0
3.548585312E0,-3.424950123E0,7.974000454E0,-4.930050373E0
3.551118852E0,-3.420000076E0,8.014050484E0,-5.031000137E0
3.553652466E0,-3.319050074E0,8.079000473E0,-5.146050453E0
3.556186235E0,-3.148950100E0,8.179950714E0,-5.131050110E0
3.558719794E0,-2.818950176E0,8.271000862E0,-5.164950371E0
3.561253408E0,-2.469000101E0,8.362050056E0,-5.067000389E0
3.563786948E0,-1.996950150E0,8.413949966E0,-4.930050373E0
3.566320792E0,-1.594950080E0,8.480999947E0,-4.678950310E0
3.568854324E0,-1.363050103E0,8.485950470E0,-4.408050060E0
3.571388091E0,-1.236000061E0,8.509950638E0,-4.117949963E0
3.573921632E0,-1.153950095E0,8.551050186E0,-3.928950071E0
3.576455245E0,-1.185000062E0,8.592000008E0,-3.778050184E0
3.578989052E0,-1.264050007E0,8.575050354E0,-3.712950230E0
3.581522593E0,-1.261950016E0,8.557950020E0,-3.694050074E0
3.584056206E0,-1.027050018E0,8.496000290E0,-3.646050215E0
3.586589975E0,-9.480000734E-1,8.428950310E0,-3.742050171E0
3.589123574E0,-1.341000080E0,8.331000328E0,-3.712950230E0
3.591657112E0,-1.372050047E0,8.220000267E0,-3.685050249E0
3.594190651E0,-1.621050119E0,8.146050453E0,-3.709050179E0
3.596724418E0,-1.573050022E0,8.110050201E0,-3.721050262E0
3.599258040E0,-1.882050037E0,8.083950043E0,-3.625050068E0
3.601791808E0,-2.055000067E0,7.966950417E0,-3.531000137E0
3.604325348E0,-2.200950146E0,7.957050323E0,-3.514950275E0
3.606858961E0,-2.436000109E0,7.951950550E0,-3.519000053E0
3.609392511E0,-2.505000114E0,7.870950222E0,-3.502950191E0
3.611926278E0,-2.673000097E0,7.921050549E0,-3.463950157E0
3.614459896E0,-3.025050163E0,7.995000362E0,-3.670050144E0
3.616993663E0,-3.208950043E0,8.070000648E0,-3.802050114E0
3.619527252E0,-3.339000225E0,8.107950211E0,-3.859950066E0
3.622060866E0,-3.304950237E0,8.086050034E0,-3.895050287E0
3.624594635E0,-3.207000256E0,8.116950035E0,-4.044000149E0
3.627128175E0,-3.034050226E0,7.951950550E0,-4.105950356E0
3.629661775E0,-3.115950108E0,7.899000168E0,-4.260000229E0
3.632195315E0,-3.324000120E0,7.974000454E0,-4.285950184E0
3.634729082E0,-3.477000237E0,8.083950043E0,-4.188000202E0
3.637262700E0,-3.633000135E0,8.206049919E0,-4.180050373E0
3.639796238E0,-3.676050186E0,8.230050087E0,-4.201950073E0
3.642330082E0,-3.460950136E0,8.161050797E0,-4.243050098E0
3.644863623E0,-3.192000151E0,8.155950546E0,-4.293000221E0
3.647397161E0,-3.027000189E0,8.185050011E0,-4.377000332E0
3.649930943E0,-2.764050245E0,8.143950462E0,-4.449000359E0
3.652464560E0,-2.692050219E0,8.164950371E0,-4.537050247E0
3.654998327E0,-2.646000147E0,8.131950378E0,-4.441950321E0
3.657531868E0,-2.278050184E0,8.010000229E0,-4.281000137E0
3.660065467E0,-2.083950043E0,8.789999962E0,-4.135050297E0
3.662599008E0,-1.966050148E0,9.244950294E0,-4.012950420E0
3.665132775E0,-2.170050144E0,9.370050430E0,-3.808950186E0
3.667666392E0,-2.452050209E0,9.301050186E0,-3.639000177E0
3.670199926E0,-2.706000090E0,9.256950378E0,-3.898050070E0
3.672733693E0,-3.243000269E0,9.367950439E0,-4.328999996E0
3.675267310E0,-3.484950066E0,9.102000237E0,-4.693050385E0
3.677801077E0,-3.472950220E0,8.649000168E0,-4.606950283E0
3.680334603E0,-3.513000250E0,8.347050667E0,-4.662000179E0
3.682868216E0,-3.523050070E0,8.311050415E0,-4.759950161E0
3.685401757E0,-3.613950253E0,8.447999954E0,-4.522950172E0
3.687935524E0,-3.513000250E0,8.315999985E0,-4.719000340E0
3.690469141E0,-3.247950077E0,7.890000343E0,-5.050050259E0
3.693002680E0,-2.958000183E0,7.380000114E0,-5.158050060E0
3.695536447E0,-2.842950106E0,6.894000530E0,-5.197950363E0
3.698069988E0,-2.692050219E0,6.664050102E0,-5.064000130E0
3.700603856E0,-2.752050161E0,7.039950371E0,-4.839000225E0
3.703137396E0,-2.622000217E0,7.285950184E0,-4.705049992E0
3.705671012E0,-2.602950096E0,7.351050377E0,-4.687950134E0
3.708204550E0,-2.524050236E0,7.224000454E0,-4.861050129E0
3.710738317E0,-2.409000158E0,7.111950397E0,-4.842000008E0
3.713271935E0,-2.349000216E0,6.775950432E0,-4.747950077E0
3.715805473E0,-1.971000075E0,6.448050499E0,-4.999950409E0
3.718339240E0,-1.755000114E0,6.253950119E0,-5.194050312E0
3.720872849E0,-1.699950099E0,6.204000473E0,-4.975950241E0
3.723406616E0,-1.729050040E0,6.325950146E0,-4.987950325E0
3.725940157E0,-1.759950042E0,6.405000210E0,-5.257950306E0
3.728473695E0,-1.954050064E0,6.604050159E0,-5.287050247E0
3.731007312E0,-2.127000093E0,6.934050560E0,-5.296950340E0
3.733541082E0,-2.152950048E0,7.119000435E0,-5.457000256E0
3.736074699E0,-2.184000015E0,7.432050228E0,-5.581950188E0
3.738608237E0,-2.155050039E0,7.774950504E0,-5.728050232E0
3.741142000E0,-1.990050077E0,7.938000202E0,-5.881050110E0
3.743675617E0,-1.710000038E0,8.005050659E0,-5.847000122E0
3.746209156E0,-1.405950069E0,8.019000053E0,-5.662950039E0
3.748742923E0,-1.152000070E0,7.798950195E0,-5.323050022E0
3.751276459E0,-1.081950068E0,7.701000214E0,-5.136000156E0
3.753810303E0,-1.699950099E0,8.812050819E0,-5.088000298E0
3.756343844E0,-1.393950105E0,9.094950676E0,-5.086050034E0
3.758877459E0,-1.327050090E0,9.070950508E0,-4.900950432E0
3.761410983E0,-1.381950021E0,8.992050171E0,-4.693050385E0
3.763944750E0,-1.606950045E0,9.034950256E0,-4.906050205E0
3.766478367E0,-1.911000133E0,9.435000420E0,-5.143050194E0
3.769011906E0,-2.044950008E0,9.319950104E0,-4.885050297E0
3.771545664E0,-2.368950129E0,9.004050255E0,-5.008950233E0
3.774079205E0,-2.536050081E0,8.862000465E0,-5.104950428E0
3.776612818E0,-3.091950178E0,8.905050278E0,-5.212950230E0
3.779146587E0,-3.961050272E0,8.343000412E0,-4.846050262E0
3.781680098E0,-3.487050056E0,7.249950409E0,-4.458000183E0
3.784213711E0,-1.456050038E0,7.392000198E0,-5.220000267E0
3.786747480E0,-2.050050020E0,9.645000458E0,-5.329950333E0
3.789281098E0,-3.178050041E0,1.071105003E1,-4.285950184E0
3.791814631E0,-4.135950089E0,1.099905014E1,-4.675950050E0
3.794348398E0,-4.411950111E0,1.075200081E1,-5.131050110E0
3.796882016E0,-4.407000065E0,1.019205093E1,-5.445000172E0
3.799415554E0,-4.351950169E0,9.733950615E0,-5.392050266E0
3.801949321E0,-4.252950191E0,9.340950012E0,-5.608050346E0
3.804482862E0,-4.047000408E0,9.102000237E0,-5.470950127E0
3.807016475E0,-3.832050085E0,8.734950066E0,-5.128950119E0
3.809550245E0,-3.669000149E0,8.355000496E0,-5.230050087E0
3.812083862E0,-3.760050297E0,8.464950562E0,-5.566950321E0
3.814617400E0,-3.532950163E0,8.778000832E0,-5.649000168E0
3.817151168E0,-3.085050106E0,8.794950485E0,-5.368050098E0
3.819684785E0,-2.887950182E0,8.838000298E0,-5.365950108E0
3.822218334E0,-2.800050020E0,8.710950851E0,-5.428050041E0
3.824752101E0,-2.632050037E0,8.434050560E0,-5.578950405E0
3.827285641E0,-2.254050016E0,8.151000023E0,-5.574000359E0
3.829819485E0,-2.047950029E0,7.576050282E0,-5.634000301E0
3.832353006E0,-2.328000069E0,7.605000496E0,-5.641050339E0
3.834886544E0,-2.155050039E0,7.852050304E0,-5.743950367E0
3.837420158E0,-2.086050034E0,7.770000458E0,-5.173950195E0
3.839953927E0,-2.011950016E0,7.971000195E0,-4.843950272E0
3.842487544E0,-1.672050118E0,8.023950577E0,-4.897050381E0
3.845021083E0,-1.909050107E0,8.517000198E0,-4.924950123E0
3.847554850E0,-1.782000065E0,8.901000023E0,-4.912950039E0
3.850088467E0,-1.569000125E0,9.010950089E0,-5.059050083E0
3.852622001E0,-1.779000044E0,8.824049950E0,-5.232000351E0
3.855155768E0,-1.854000092E0,8.764050484E0,-5.224950314E0
3.857689309E0,-2.266050100E0,9.226050377E0,-5.095050335E0
3.860222922E0,-2.146050215E0,9.222000122E0,-5.028000355E0
3.862756682E0,-2.074050188E0,9.127950668E0,-5.115000248E0
3.865290300E0,-1.933050036E0,9.235950470E0,-5.172000408E0
3.867823838E0,-1.758000135E0,9.157050133E0,-5.155050278E0
3.870357605E0,-1.786950111E0,9.006000519E0,-5.397000313E0
3.872891204E0,-1.753050089E0,8.776050568E0,-5.548050404E0
3.875424742E0,-1.825050116E0,8.398050308E0,-5.275050163E0
3.877958509E0,-1.969050050E0,8.248950005E0,-5.407050133E0
3.880492127E0,-2.014050007E0,8.071949959E0,-5.397000313E0
3.883025641E0,-2.221950054E0,7.570950508E0,-5.076000214E0
3.885559409E0,-2.194050074E0,7.567050457E0,-5.179050446E0
3.888093026E0,-1.863000035E0,7.345950127E0,-4.918050289E0
3.890626564E0,-1.858050108E0,7.225950241E0,-4.992000103E0
3.893160327E0,-1.899000049E0,7.200000286E0,-4.966050148E0
3.895693944E0,-2.076000214E0,6.949050426E0,-4.915950298E0
3.898227482E0,-2.359050035E0,6.898050308E0,-5.008950233E0
3.900761250E0,-2.397000074E0,6.843000412E0,-5.103000164E0
3.903294820E0,-2.332950115E0,6.666000366E0,-4.975950241E0
3.905828359E0,-2.395050049E0,6.589050293E0,-4.999950409E0
3.908362126E0,-2.221950054E0,6.580050468E0,-5.332050323E0
3.910895743E0,-2.368950129E0,6.642000198E0,-5.227050304E0
3.913429306E0,-2.497950077E0,6.634950161E0,-4.911000252E0
3.915963073E0,-2.256000042E0,6.616050243E0,-5.304000378E0
3.918496690E0,-2.281949997E0,6.640050411E0,-5.218050480E0
3.921030229E0,-2.383050203E0,6.618000507E0,-4.585050106E0
3.923563991E0,-2.052000046E0,6.867000103E0,-4.315050125E0
3.926097608E0,-1.890000105E0,7.188000202E0,-4.231050014E0
3.928631147E0,-1.770000100E0,7.665000439E0,-4.233000278E0
3.931164914E0,-1.726950049E0,7.999950409E0,-4.066050053E0
3.933698559E0,-1.936950088E0,8.314050674E0,-4.108950138E0
3.936232098E0,-2.146050215E0,8.464950562E0,-4.087049961E0
3.938765865E0,-1.906050086E0,8.488950729E0,-4.228050232E0
3.941299406E0,-1.735950112E0,8.447999954E0,-4.216050148E0
3.943833034E0,-1.474950075E0,8.359050751E0,-4.398000240E0
3.946366803E0,-1.171050072E0,8.424000740E0,-4.489050388E0
3.948900421E0,-8.260500431E-1,8.407050133E0,-4.494000435E0
3.951433959E0,-3.880500197E-1,8.362050056E0,-4.360050201E0
3.953967736E0,3.299999982E-2,8.244000435E0,-4.192049980E0
3.956501354E0,3.000000119E-2,8.131950378E0,-4.137000084E0
3.959034892E0,-1.395000052E-2,7.966950417E0,-3.984000206E0
3.961568659E0,-6.705000252E-2,7.890000343E0,-3.970050097E0
3.964102277E0,-1.459500045E-1,7.951950550E0,-4.125000000E0
3.966635815E0,-2.779500186E-1,8.208000183E0,-4.183050156E0
3.969169583E0,-2.560500205E-1,8.436000824E0,-4.128000259E0
3.971703200E0,-2.200500071E-1,8.613000870E0,-4.177950382E0
3.974236728E0,-3.259500265E-1,8.737950325E0,-4.048950195E0
3.976770496E0,-5.719500184E-1,8.745000839E0,-4.093950272E0
3.979304036E0,-8.410500288E-1,8.721000671E0,-4.341000080E0
3.981837650E0,-1.069950104E0,8.664000511E0,-4.390950203E0
3.984371400E0,-1.332000017E0,8.460000038E0,-4.522950172E0
3.986905017E0,-1.654950023E0,8.137050629E0,-4.638000011E0
3.989438556E0,-1.935000062E0,7.837050438E0,-4.846050262E0
3.991972323E0,-2.095950127E0,7.417950153E0,-4.738950253E0
3.994505959E0,-2.385000229E0,7.164000511E0,-4.693050385E0
3.997039498E0,-2.644050121E0,7.092000484E0,-4.666950226E0
3.999573265E0,-2.668050051E0,7.009050369E0,-4.651950359E0
4.002106882E0,-2.626950026E0,6.943950176E0,-4.695000172E0
4.004640659E0,-2.521950006E0,7.104000568E0,-4.671000004E0
4.007174199E0,-2.332950115E0,7.345950127E0,-4.594950199E0
4.009707738E0,-2.031000137E0,7.606950283E0,-4.510950089E0
4.012241351E0,-1.654950023E0,7.726950169E0,-4.324050426E0
4.014775120E0,-1.365000010E0,7.834950447E0,-4.171050072E0
4.017308738E0,-1.224000096E0,7.926000595E0,-4.060950279E0
4.019842276E0,-1.072950006E0,7.959000587E0,-4.039050102E0
4.022376043E0,-7.330500484E-1,7.959000587E0,-3.883950233E0
4.024909690E0,-4.840500355E-1,7.902000427E0,-3.634050131E0
4.027443228E0,-1.870500147E-1,7.684050560E0,-3.466950178E0
4.029976995E0,-2.350500077E-1,7.749000549E0,-3.595950127E0
4.032510613E0,-3.379500210E-1,7.894950390E0,-3.907050133E0
4.035044390E0,-7.039500475E-1,8.176950455E0,-3.996000290E0
4.037577930E0,-9.600000381E-1,8.446050644E0,-4.068000317E0
4.040111544E0,-7.969500422E-1,8.601000786E0,-4.273950100E0
4.042645084E0,-8.550000191E-1,8.629950523E0,-4.111050129E0
4.045178866E0,-9.820500612E-1,8.608050346E0,-4.080000401E0
4.047712483E0,-1.236000061E0,8.628000259E0,-4.221000195E0
4.050246021E0,-1.651950121E0,8.653950691E0,-4.422000408E0
4.052779789E0,-2.008949995E0,8.635050774E0,-4.600050449E0
4.055313401E0,-2.233950138E0,8.653950691E0,-4.885050297E0
4.057847168E0,-2.107050180E0,8.545949936E0,-4.891950130E0
4.060380709E0,-1.825050116E0,8.320950508E0,-4.911000252E0
4.062914322E0,-1.849050045E0,8.149050713E0,-4.825050354E0
4.065448120E0,-1.827000141E0,8.158050537E0,-4.851000309E0
4.067981661E0,-1.902000070E0,8.254050255E0,-4.911000252E0
4.070515274E0,-2.092950106E0,8.248950005E0,-4.927950382E0
4.073048815E0,-2.416050196E0,8.125050545E0,-4.959000111E0
4.075582577E0,-2.673000097E0,8.022000313E0,-5.148000240E0
4.078116194E0,-2.875950098E0,7.909050465E0,-5.268000126E0
4.080649733E0,-2.958000183E0,7.708050251E0,-5.368050098E0
4.083183500E0,-3.100950241E0,7.507050514E0,-5.517000198E0
4.085717117E0,-3.192000151E0,7.179000378E0,-5.686950207E0
4.088250885E0,-3.250050068E0,6.891000271E0,-5.737050056E0
4.090784425E0,-3.360000134E0,6.822000504E0,-5.742000103E0
4.093318038E0,-3.493950129E0,6.858000278E0,-5.620050430E0
4.095851818E0,-3.505950212E0,6.831000328E0,-5.589000225E0
4.098385358E0,-3.517950058E0,6.907950401E0,-5.686950207E0
4.100918972E0,-3.448950052E0,6.955950260E0,-5.613000393E0
4.103452512E0,-3.298050165E0,7.032000542E0,-5.574000359E0
4.105986263E0,-3.379050255E0,7.332000256E0,-5.340000153E0
4.108519881E0,-3.537000179E0,7.624050140E0,-5.289000034E0
4.111053648E0,-3.421950102E0,7.765050411E0,-5.470950127E0
4.113587188E0,-3.444000244E0,7.918950558E0,-5.485950470E0
4.116120737E0,-3.556050062E0,8.107950211E0,-5.401950359E0
4.118654581E0,-3.489000082E0,8.215950012E0,-4.966050148E0
4.121188121E0,-3.433950186E0,7.906950474E0,-5.212950230E0
4.123721737E0,-3.286050081E0,7.677000523E0,-5.434950352E0
4.126255275E0,-3.279000044E0,7.605000496E0,-5.206050396E0
4.128789043E0,-3.312000275E0,7.630950451E0,-4.900950432E0
4.131322660E0,-3.264000177E0,7.701000214E0,-4.810050011E0
4.133856198E0,-3.142050266E0,7.756050587E0,-4.899000168E0
4.136389966E0,-3.018000126E0,7.858950138E0,-4.951950073E0
4.138923583E0,-3.001050234E0,7.935000420E0,-4.948950291E0
4.141457350E0,-2.730000019E0,7.966950417E0,-4.959000111E0
4.143990891E0,-2.401950121E0,8.143950462E0,-4.858050346E0
4.146524538E0,-2.254050016E0,8.259000778E0,-4.765050411E0
4.149058307E0,-2.116950035E0,8.364000320E0,-4.746000290E0
4.151591848E0,-1.887000084E0,8.458050728E0,-4.791000366E0
4.154125461E0,-1.681050062E0,8.517000198E0,-4.705049992E0
4.156658992E0,-1.450950027E0,8.557950020E0,-4.614000320E0
4.159192759E0,-1.185000062E0,8.548950195E0,-4.504050255E0
4.161726376E0,-9.510000348E-1,8.596050262E0,-4.449000359E0
4.164259915E0,-8.449500203E-1,8.656050682E0,-4.405950069E0
4.166793653E0,-7.639500499E-1,8.572050095E0,-4.585050106E0
4.169327270E0,-7.780500650E-1,8.413949966E0,-4.662000179E0
4.171861038E0,-1.030050039E0,8.356950760E0,-4.546950340E0
4.174394578E0,-1.363050103E0,8.320950508E0,-4.753050327E0
4.176928188E0,-1.446000099E0,8.412000656E0,-5.043000221E0
4.179461957E0,-1.272000074E0,8.640000343E0,-5.220000267E0
4.181995497E0,-1.161000013E0,8.745000839E0,-5.488050461E0
4.184529111E0,-9.889500737E-1,8.674950600E0,-5.515050411E0
4.187062622E0,-9.439500570E-1,8.572050095E0,-5.554950237E0
4.189596389E0,-9.340500236E-1,8.640000343E0,-5.653050423E0
4.192130007E0,-9.360000491E-1,8.428950310E0,-5.434950352E0
4.194663774E0,-9.240000248E-1,8.119950294E0,-5.122050285E0
4.197197318E0,-1.003050089E0,7.866000175E0,-5.071050167E0
4.199730932E0,-1.060950041E0,8.074049950E0,-5.164950371E0
4.202264472E0,-1.305000067E0,8.282999992E0,-5.953050137E0
4.204798240E0,-1.561050057E0,7.452000141E0,-4.956000328E0
4.207331886E0,-1.438950062E0,7.531050205E0,-4.909050465E0
4.209865653E0,-1.552050114E0,7.777050495E0,-5.263050079E0
4.212399194E0,-1.662000060E0,7.761000156E0,-5.088000298E0
4.214932807E0,-1.714950085E0,7.797000408E0,-4.947000027E0
4.217466371E0,-1.612050056E0,7.798950195E0,-4.996950150E0
4.220000139E0,-1.545000076E0,7.879950523E0,-4.906050205E0
4.222533756E0,-1.477950096E0,7.957050323E0,-4.852950096E0
4.225067523E0,-1.425000072E0,7.930950165E0,-4.834050179E0
4.227601050E0,-1.336050034E0,7.903950214E0,-4.834050179E0
4.230134663E0,-1.378950119E0,7.945050240E0,-4.867950439E0
4.232668204E0,-1.411050081E0,7.933050156E0,-4.918050289E0
4.235201971E0,-1.257000089E0,7.810950279E0,-4.930050373E0
4.237735602E0,-1.138050079E0,7.701000214E0,-4.867950439E0
4.240269141E0,-1.890000105E0,8.107950211E0,-4.887000084E0
4.242802908E0,-2.005050182E0,8.227950096E0,-5.148000240E0
4.245336525E0,-2.028000116E0,8.280000687E0,-5.292000294E0
4.247870079E0,-2.107050180E0,8.290050507E0,-5.241000175E0
4.250403846E0,-2.115000010E0,8.272950172E0,-5.263050079E0
4.252937463E0,-1.966050148E0,8.259000778E0,-5.292000294E0
4.255471231E0,-1.923000097E0,8.089050293E0,-5.361000061E0
4.258004766E0,-1.813050032E0,8.163000107E0,-5.233950138E0
4.260538380E0,-1.825050116E0,8.062050819E0,-4.237950325E0
4.263072149E0,-1.482000113E0,7.633950233E0,-4.240050316E0
4.265605689E0,-1.201950073E0,7.437000275E0,-5.116950035E0
4.268139303E0,-1.129950047E0,7.585950375E0,-5.292000294E0
4.270672843E0,-1.042050004E0,7.705050468E0,-5.014050007E0
4.273206610E0,-8.449500203E-1,7.749000549E0,-4.923000336E0
4.275740228E0,-7.380000353E-1,7.761000156E0,-4.888950348E0
4.278273751E0,-8.170500398E-1,7.786950588E0,-4.870050430E0
4.280807595E0,-7.879500389E-1,7.749000549E0,-5.059050083E0
4.283341136E0,-8.119500279E-1,7.915950298E0,-5.059050083E0
4.285874903E0,-8.689500690E-1,8.070000648E0,-4.909050465E0
4.288408449E0,-8.740500212E-1,8.223000526E0,-4.894050121E0
4.290942062E0,-8.839500546E-1,8.374050140E0,-4.827000141E0
4.293475831E0,-1.030050039E0,8.458050728E0,-4.855950356E0
4.296009367E0,-1.081950068E0,8.616000175E0,-4.948950291E0
4.298542977E0,-1.153950095E0,8.671050072E0,-5.134050369E0
4.301076586E0,-1.399050117E0,8.539050102E0,-5.257950306E0
4.303610288E0,-1.504050016E0,8.256000519E0,-5.412000179E0
4.306143905E0,-1.779000044E0,7.933050156E0,-5.538000107E0
4.308677444E0,-3.051000118E0,7.507050514E0,-5.602950096E0
4.311211288E0,-2.529000044E0,7.096950531E0,-5.878950119E0
4.313744809E0,-3.379500210E-1,7.312950134E0,-5.614950180E0
4.316278576E0,-1.012950063E0,7.321950436E0,-4.899000168E0
4.318812117E0,-1.522950053E0,8.034000397E0,-4.927950382E0
4.321345730E0,-7.639500499E-1,8.686950684E0,-5.305950165E0
4.323879500E0,-9.439500570E-1,8.866950035E0,-5.160000324E0
4.326413040E0,-2.011950016E0,8.788050652E0,-4.968000412E0
4.328946653E0,-2.608050108E0,8.520000458E0,-5.086050034E0
4.331480194E0,-2.563050032E0,8.035950661E0,-5.100000381E0
4.334014043E0,-2.313000202E0,7.534950256E0,-4.972950459E0
4.336547584E0,-2.440050125E0,7.191000462E0,-4.891950130E0
4.339081351E0,-3.316950083E0,6.859950542E0,-4.876950264E0
4.341614968E0,2.580000162E-1,6.738000393E0,-4.978050232E0
4.344148511E0,1.051050067E0,7.156950474E0,-4.060950279E0
4.346682278E0,2.100000158E-2,7.633950233E0,-3.952950239E0
4.349215818E0,-1.117950082E0,7.971000195E0,-4.200000286E0
4.351749432E0,-1.983000040E0,7.951950550E0,-4.315050125E0
4.354283235E0,-2.388000011E0,7.672050476E0,-4.426949978E0
4.356816775E0,-1.767000079E0,7.423050404E0,-4.686000347E0
4.359350389E0,-1.743000031E0,7.234050274E0,-4.554000378E0
4.361884158E0,-1.339050055E0,7.092000484E0,-4.522950172E0
4.364417761E0,-4.999500215E-1,7.255050182E0,-4.473000050E0
4.366951300E0,-9.150000215E-1,7.605000496E0,-4.231050014E0
4.369485067E0,-1.995000124E0,7.915950298E0,-4.324050426E0
4.372018685E0,-3.046050072E0,8.251950264E0,-4.582950115E0
4.374552213E0,-3.336000204E0,8.455050468E0,-4.899000168E0
4.377085980E0,-4.723050117E0,8.496000290E0,-4.935000420E0
4.379619521E0,-1.332000017E0,7.927950382E0,-5.281950474E0
4.382153134E0,8.970000148E-1,7.897050381E0,-4.498950005E0
4.384686903E0,-5.599500537E-1,8.458050728E0,-3.939000130E0
4.387220444E0,-2.716050148E0,9.183000565E0,-4.405950069E0
4.389754057E0,-2.733000040E0,8.932050705E0,-5.128950119E0
4.392287826E0,-2.488050222E0,8.455050468E0,-5.548050404E0
4.394821444E0,-3.487050056E0,8.461950302E0,-5.452050209E0
4.397354982E0,-9.918000221E0,8.949000359E0,-5.281950474E0
4.399888750E0,-6.409050465E0,7.858950138E0,-6.601950169E0
4.402422367E0,-3.468000174E0,7.531050205E0,-5.052000046E0
4.404955881E0,-3.288000107E0,7.770000458E0,-4.612050056E0
4.407489649E0,-6.454050541E0,8.623050690E0,-5.416050434E0
4.410023189E0,-4.122000217E0,7.902000427E0,-5.581950188E0
4.412556802E0,2.665050030E0,7.978950500E0,-4.956000328E0
4.415090562E0,-4.179000378E0,9.696000099E0,-4.006050110E0
4.417624102E0,-5.556000233E0,1.013895035E1,-5.512050152E0
4.420157716E0,-1.516050100E0,8.512949944E0,-5.353950024E0
4.422691485E0,4.693050385E0,7.489950180E0,-5.146050453E0
4.425225011E0,2.739000082E0,8.436000824E0,-3.915000200E0
4.427758625E0,4.249500334E-1,9.162000656E0,-4.108950138E0
4.430292394E0,-5.170500278E-1,8.956050873E0,-4.300050259E0
4.432826011E0,-1.506000042E0,8.695050240E0,-4.113000393E0
4.435359565E0,-1.999950051E0,8.452950478E0,-4.303050041E0
4.437893332E0,-2.194050074E0,8.292000771E0,-4.456050396E0
4.440426949E0,-1.858050108E0,8.065050125E0,-4.504050255E0
4.442960488E0,-1.188000083E0,7.804050446E0,-4.437000275E0
4.445494255E0,-1.051050067E0,7.756050587E0,-4.276050091E0
4.448027872E0,-1.481295109E1,8.764050484E0,-3.694050074E0
4.450561640E0,-5.616000175E0,8.419050217E0,-7.972050190E0
4.453095180E0,9.100049973E0,5.695950508E0,-4.633050442E0
4.455628794E0,6.778950214E0,6.810000420E0,-2.947050095E0
4.458162563E0,2.890050173E0,7.854000568E0,-4.027050018E0
4.460696103E0,1.009950042E0,7.951950550E0,-4.195050240E0
4.463229717E0,-1.351050019E0,9.079950333E0,-4.341000080E0
4.465763267E0,-2.809050083E0,9.391950607E0,-5.031000137E0
4.468297034E0,-1.063050032E0,8.556000710E0,-5.395050049E0
4.470830652E0,4.330500066E-1,7.858950138E0,-4.294950008E0
4.473364419E0,6.599999964E-2,7.866000175E0,-3.790050268E0
4.475897949E0,-1.984950066E0,8.091000557E0,-3.910050154E0
4.478431563E0,-4.570050240E0,8.115000725E0,-4.135050297E0
4.480965332E0,-2.788050175E0,7.435050488E0,-5.040000439E0
4.483498873E0,-8.713050842E0,7.009050369E0,-4.717050076E0
4.486032491E0,2.890500128E-1,6.217950344E0,-6.328950405E0
4.488566260E0,3.505050182E0,5.809050083E0,-3.690000057E0
4.491099801E0,1.069950104E0,6.805050373E0,-3.838050127E0
4.493633414E0,1.063050032E0,7.126050472E0,-4.420050144E0
4.496166940E0,1.500000060E-1,7.762950420E0,-3.934050083E0
4.498700784E0,-1.305000067E0,8.199000359E0,-3.967050076E0
4.501234324E0,-2.124000072E0,8.155950546E0,-4.252050400E0
4.503768091E0,-2.407050133E0,8.551050186E0,-4.378950119E0
4.506301623E0,-2.232000113E0,8.565000534E0,-4.276050091E0
4.508835236E0,-1.959000111E0,8.256000519E0,-4.168950081E0
4.511369005E0,-1.822050095E0,8.005050659E0,-4.111050129E0
4.513902546E0,-1.873050094E0,7.753050327E0,-3.955050230E0
4.516436144E0,-2.091000080E0,7.677000523E0,-4.135050297E0
4.518969914E0,-2.653950214E0,6.934050560E0,-3.928950071E0
4.521503454E0,-2.515050173E0,7.261950493E0,-3.175050259E0
4.524037067E0,-6.940500140E-1,7.150050163E0,-3.832950115E0
4.526570613E0,8.100000024E-2,6.858000278E0,-4.315050125E0
4.529104457E0,-1.459500045E-1,7.761000156E0,-3.757050276E0
4.531637998E0,-7.695000619E-2,8.443050385E0,-3.469050169E0
4.534171765E0,1.380000114E-1,9.268950462E0,-3.427950144E0
4.536705368E0,8.805000782E-2,9.787050247E0,-3.141000032E0
4.539238907E0,1.240500063E-1,1.063905048E1,-3.139050245E0
4.541772674E0,2.839500010E-1,1.090305042E1,-3.321000099E0
4.544306214E0,3.220500052E-1,1.089600086E1,-3.175050259E0
4.546839823E0,5.839500427E-1,1.041705036E1,-2.935050249E0
4.549373592E0,7.009500265E-1,9.889950752E0,-2.976000071E0
4.551907132E0,6.409500241E-1,9.519000053E0,-3.346950054E0
4.554440746E0,4.950000346E-1,9.214050293E0,-3.487950087E0
4.556974548E0,2.959500253E-1,9.079950333E0,-3.414000273E0
4.559508089E0,9.000000358E-2,8.994000435E0,-3.238950253E0
4.562041702E0,-2.179500163E-1,9.063000679E0,-3.121950150E0
4.564575471E0,-4.930500090E-1,9.055950165E0,-3.033000231E0
4.567109104E0,-8.070000410E-1,8.992050171E0,-2.973000050E0
4.569642642E0,-9.360000491E-1,8.848050117E0,-3.055050135E0
4.572176409E0,-1.161000013E0,8.755050659E0,-3.244050264E0
4.574709950E0,-1.540050030E0,8.731050491E0,-3.454950094E0
4.577243572E0,-1.909050107E0,8.731050491E0,-3.634050131E0
4.579777341E0,-2.122050047E0,8.793000221E0,-3.771000147E0
4.582310882E0,-2.242050171E0,8.818950653E0,-3.868950129E0
4.584844726E0,-2.332950115E0,8.866950035E0,-4.207050323E0
4.587378276E0,-2.445000172E0,8.958000183E0,-4.425000191E0
4.589911815E0,-2.662950039E0,8.983950615E0,-4.624050140E0
4.592445428E0,-2.914950132E0,8.905050278E0,-4.813050270E0
4.594979198E0,-3.133050203E0,8.845950127E0,-5.014050007E0
4.597512785E0,-3.394050121E0,8.812050819E0,-5.124000072E0
4.600046323E0,-3.307050228E0,8.737950325E0,-5.256000042E0
4.602580091E0,-3.208950043E0,8.697000504E0,-5.443050385E0
4.605113708E0,-3.739050150E0,8.800050735E0,-5.224950314E0
4.607647256E0,-3.813000202E0,8.781000137E0,-5.287050247E0
4.610181024E0,-3.730950117E0,8.841000557E0,-5.380050182E0
4.612714641E0,-3.624000072E0,8.793000221E0,-5.412000179E0
4.615248408E0,-3.556050062E0,8.659049988E0,-5.476050377E0
4.617781954E0,-3.339000225E0,8.425950050E0,-5.545950413E0
4.620315567E0,-2.713050127E0,7.819950581E0,-5.919000149E0
4.622849336E0,-2.353950024E0,7.698000431E0,-5.839950085E0
4.625382877E0,-2.401950121E0,8.422050476E0,-5.212950230E0
4.627916499E0,-2.686950207E0,8.910000801E0,-5.176950455E0
4.630450040E0,-2.886000156E0,8.848050117E0,-5.230050087E0
4.632983807E0,-3.046050072E0,8.496000290E0,-5.191050053E0
4.635517424E0,-3.006000042E0,8.055000305E0,-5.329950333E0
4.638051197E0,-3.094050169E0,7.741050243E0,-5.244000435E0
4.640584737E0,-2.938950062E0,7.437000275E0,-5.221950054E0
4.643118350E0,-2.598000050E0,7.306050301E0,-5.409000397E0
4.645652120E0,-1.969050050E0,7.246050358E0,-5.452050209E0
4.648185645E0,-1.497000098E0,7.162050247E0,-5.515050411E0
4.650719259E0,-8.670000434E-1,7.207050323E0,-5.521950245E0
4.653253028E0,-6.195000187E-2,7.561950207E0,-5.185950279E0
4.655786568E0,4.999500215E-1,7.981050491E0,-4.948950291E0
4.658320192E0,9.019500613E-1,8.383049965E0,-4.837050438E0
4.660853961E0,5.879999995E-1,8.664000511E0,-4.770000458E0
4.663387501E0,1.330500096E-1,8.755050659E0,-4.830000401E0
4.665921115E0,-4.000500143E-1,8.680050850E0,-5.002050400E0
4.668454665E0,-4.740000367E-1,8.512949944E0,-5.301000118E0
4.670988509E0,-1.068000078E0,8.485950470E0,-5.265000343E0
4.673522050E0,-1.537050128E0,8.315999985E0,-5.275050163E0
4.676055817E0,-2.371050119E0,8.224950790E0,-5.275050163E0
4.678589358E0,-3.087000132E0,8.230050087E0,-5.335050106E0
4.681122971E0,-3.621000290E0,8.131950378E0,-5.505000114E0
4.683656740E0,-3.829950094E0,8.224950790E0,-5.730000496E0
4.686190281E0,-4.323000431E0,8.374050140E0,-5.617950439E0
4.688723874E0,-4.129050255E0,8.479050636E0,-5.692050457E0
4.691257643E0,-3.930000305E0,8.752050400E0,-5.698950291E0
4.693791184E0,-3.709950209E0,9.037050247E0,-5.529000282E0
4.696324797E0,-3.361950159E0,9.175950050E0,-5.233950138E0
4.698858576E0,-2.883000135E0,9.174000740E0,-4.813050270E0
4.701392194E0,-2.421000004E0,9.079950333E0,-4.542000294E0
4.703925732E0,-2.196000099E0,8.934000015E0,-4.267050266E0
4.706459499E0,-1.696050048E0,8.692049980E0,-4.256999969E0
4.708993117E0,-1.417950034E0,8.467050552E0,-4.540050030E0
4.711526655E0,-1.605000019E0,8.248950005E0,-4.045950413E0
4.714060423E0,-1.438950062E0,7.993050575E0,-4.149000168E0
4.716593963E0,-1.339050055E0,7.879950523E0,-4.279050350E0
4.719127566E0,-1.224000096E0,7.819950581E0,-4.248000145E0
4.721661336E0,-1.297950029E0,7.876050472E0,-4.225950241E0
4.724194876E0,-1.273950100E0,7.914000511E0,-4.231050014E0
4.726728720E0,-1.243050098E0,7.885050297E0,-4.294950008E0
4.729262266E0,-1.152000070E0,7.888050556E0,-4.180050373E0
4.731795881E0,-9.670500755E-1,7.987950325E0,-3.984000206E0
4.734329420E0,-8.980500698E-1,8.053050041E0,-3.915000200E0
4.736863187E0,-8.329500556E-1,8.122050285E0,-4.012950420E0
4.739396794E0,-8.929500580E-1,8.200950623E0,-3.924000263E0
4.741930333E0,-1.000950098E0,8.206049919E0,-4.019999981E0
4.744464100E0,-1.048950076E0,8.110050201E0,-4.140000343E0
4.746997717E0,-1.027050018E0,8.134050369E0,-3.922050238E0
4.749531252E0,-1.006049991E0,8.091000557E0,-3.831000090E0
4.752065019E0,-1.006049991E0,8.031000137E0,-3.811950207E0
4.754598636E0,-8.620500565E-1,8.002050400E0,-3.699000120E0
4.757132404E0,-7.450500131E-1,7.978950500E0,-3.514950275E0
4.759665953E0,-5.989500284E-1,8.006999969E0,-3.342000246E0
4.762199567E0,-6.270000339E-1,8.029050827E0,-3.570000172E0
4.764733336E0,-8.719500303E-1,8.176950455E0,-3.739950180E0
4.767266876E0,-1.048950076E0,8.188950539E0,-3.723000288E0
4.769800480E0,-5.359500051E-1,8.138999939E0,-3.771000147E0
4.772334249E0,-3.420000076E-1,8.239950180E0,-3.910050154E0
4.774867789E0,-3.040500283E-1,8.464950562E0,-3.559950113E0
4.777401403E0,-2.179500163E-1,8.532000542E0,-3.277950048E0
4.779935163E0,-2.029500157E-1,8.449950218E0,-2.920950174E0
4.782468703E0,-2.590500116E-1,8.368950844E0,-2.788950205E0
4.785002317E0,-3.520500064E-1,8.320950508E0,-3.136050224E0
4.787536086E0,-3.589500189E-1,8.266050339E0,-3.414000273E0
4.790069703E0,-4.789500237E-1,8.175000191E0,-3.475950241E0
4.792603242E0,-7.660500407E-1,8.200950623E0,-3.457050085E0
4.795137009E0,-1.257000089E0,8.332950592E0,-3.340050220E0
4.797670550E0,-1.822050095E0,8.761950493E0,-3.522000074E0
4.800204158E0,-2.395050049E0,9.126000404E0,-3.618000269E0
4.802737927E0,-2.554950237E0,9.135000229E0,-3.342000246E0
4.805271468E0,-2.764050245E0,9.154050827E0,-3.316050053E0
4.807805081E0,-2.934000254E0,9.169050217E0,-3.498000145E0
4.810338845E0,-2.785050154E0,9.049050331E0,-3.649050236E0
4.812872386E0,-2.596050024E0,8.782950401E0,-3.991050243E0
4.815405999E0,-2.401950121E0,8.649000168E0,-4.204050064E0
4.817939768E0,-2.400000095E0,8.644050598E0,-4.201950073E0
4.820473405E0,-2.661000013E0,8.773950577E0,-4.156949997E0
4.823006943E0,-2.506950140E0,8.608050346E0,-4.093950272E0
4.825540711E0,-1.984950066E0,8.328000069E0,-3.879000187E0
4.828074328E0,-1.734000087E0,8.179950714E0,-3.615000248E0
4.830608095E0,-1.626000047E0,8.134050369E0,-3.510000229E0
4.833141636E0,-1.366950035E0,8.082000732E0,-3.816000223E0
4.835675249E0,-1.237950087E0,8.115000725E0,-3.943050146E0
4.838208789E0,-1.413000107E0,8.143950462E0,-4.147050381E0
4.840742567E0,-1.378950119E0,8.175000191E0,-4.261950016E0
4.843276184E0,-1.329000115E0,8.355000496E0,-4.044000149E0
4.845809951E0,-1.204950094E0,8.320950508E0,-3.783000231E0
4.848343492E0,-1.114050031E0,8.436000824E0,-3.816000223E0
4.850877148E0,-1.686000109E0,8.683050156E0,-4.221000195E0
4.853410689E0,-2.625000238E0,9.198000908E0,-4.269000053E0
4.855944456E0,-3.480000257E0,9.460950851E0,-4.473000050E0
4.858478073E0,-3.721950293E0,8.986950874E0,-3.871950150E0
4.861011841E0,-3.657000065E0,8.716050148E0,-3.699000120E0
4.863545381E0,-3.439050198E0,8.877000809E0,-4.516050339E0
4.866078994E0,-3.070050240E0,8.704050064E0,-5.092950344E0
4.868612535E0,-3.106050253E0,8.829000473E0,-5.251050472E0
4.871146283E0,-3.039000034E0,8.944050789E0,-5.079000473E0
4.873679901E0,-2.682000160E0,8.683050156E0,-4.765050411E0
4.876213668E0,-2.512050152E0,8.709000587E0,-4.530000210E0
4.878747208E0,-2.505000114E0,8.805000305E0,-4.422000408E0
4.881280827E0,-2.503050089E0,8.794950485E0,-4.567950249E0
4.883814596E0,-2.313000202E0,8.788050652E0,-4.795950413E0
4.886348136E0,-2.158050060E0,8.752050400E0,-4.978050232E0
4.888881750E0,-1.791000128E0,8.710950851E0,-5.056950092E0
4.891415523E0,-1.456050038E0,8.674950600E0,-5.095050335E0
4.893949140E0,-1.377000093E0,8.625000000E0,-5.019000053E0
4.896482679E0,-1.303050041E0,8.616000175E0,-4.996950150E0
4.899016446E0,-1.297950029E0,8.580000877E0,-4.971000195E0
4.901550073E0,-1.369950056E0,8.500950813E0,-5.035950184E0
4.904083612E0,-1.423050046E0,8.416950226E0,-5.044950008E0
4.906617379E0,-1.465950012E0,8.388000488E0,-4.984950066E0
4.909150920E0,-1.429950118E0,8.350049973E0,-4.939950466E0
4.911684538E0,-1.369950056E0,8.340000153E0,-4.947000027E0
4.914218307E0,-1.377000093E0,8.392950058E0,-4.968000412E0
4.916751848E0,-1.312050104E0,8.479050636E0,-5.062050343E0
4.919285692E0,-1.216950059E0,8.541000366E0,-5.103000164E0
4.921819236E0,-1.201950073E0,8.560950279E0,-5.152950287E0
4.924352852E0,-1.185000062E0,8.508000374E0,-5.176950455E0
4.926886619E0,-1.123050094E0,8.536950111E0,-5.050050259E0
4.929420159E0,-1.175999999E0,8.568000793E0,-4.770000458E0
4.931953798E0,-1.426950097E0,8.527050018E0,-4.695000172E0
4.934487338E0,-1.585050106E0,8.395050049E0,-4.830000401E0
4.937021106E0,-1.789050102E0,8.302050591E0,-4.975950241E0
4.939554723E0,-2.107050180E0,8.158050537E0,-5.055000305E0
4.942088246E0,-2.505000114E0,8.043000221E0,-5.152950287E0
4.944622014E0,-2.902950048E0,7.927950382E0,-5.220000267E0
4.947155631E0,-3.207000256E0,7.780050278E0,-5.341950417E0
4.949689398E0,-3.370050192E0,7.666950226E0,-5.308950424E0
4.952222939E0,-3.346050262E0,7.650000572E0,-5.251050472E0
4.954756552E0,-3.256950140E0,7.738950253E0,-5.140950203E0
4.957290321E0,-3.079950094E0,7.888050556E0,-5.023950100E0
4.959823862E0,-2.863950253E0,8.091000557E0,-4.861050129E0
4.962357475E0,-2.620050192E0,8.347050667E0,-4.755000114E0
4.964891244E0,-2.395050049E0,8.557950020E0,-4.650000095E0
4.967424785E0,-2.191050053E0,8.752050400E0,-4.549050331E0
4.969958398E0,-1.996950150E0,8.914950371E0,-4.480050087E0
4.972492173E0,-1.810950041E0,9.070950508E0,-4.402950287E0
4.975025713E0,-1.663950086E0,9.183000565E0,-4.281000137E0
4.977559326E0,-1.494000077E0,9.279000282E0,-4.123050213E0
4.980093096E0,-1.272000074E0,9.339000702E0,-4.036950111E0
4.982626698E0,-9.870000482E-1,9.274050713E0,-4.033950329E0
4.985160236E0,-8.020500541E-1,9.186000824E0,-4.225950241E0
4.987694004E0,-9.100500345E-1,9.087000847E0,-4.288050175E0
4.990227544E0,-9.940500259E-1,8.986950874E0,-4.269000053E0
4.992761139E0,-9.700500369E-1,8.869050026E0,-4.444050312E0
4.995294908E0,-8.839500546E-1,8.968050003E0,-4.291050434E0
4.997828448E0,-5.220000148E-1,9.199950218E0,-4.054049969E0
5.000362062E0,-3.795000166E-2,9.442049980E0,-2.893950224E0
5.002895817E0,1.840500087E-1,9.751049995E0,-2.611950159E0
5.005429357E0,6.599999964E-2,9.813000679E0,-2.614050150E0
5.007962971E0,-1.030500084E-1,9.655050278E0,-2.595000029E0
5.010496740E0,-1.240500063E-1,9.454050064E0,-2.881950140E0
5.013030338E0,-5.149500370E-1,9.243000031E0,-3.109950066E0
5.015563877E0,-1.129950047E0,9.207000732E0,-3.253950119E0
5.018097644E0,-1.678950071E0,9.391950607E0,-2.728950024E0
5.020631261E0,-2.389950037E0,9.744000435E0,-2.068050146E0
5.023164795E0,-2.826000214E0,9.982950211E0,-2.061000109E0
5.025698562E0,-3.142050266E0,1.004295063E1,-2.044049978E0
5.028232180E0,-3.376950264E0,9.973950386E0,-2.180999994E0
5.030765718E0,-3.397950172E0,9.504000664E0,-2.503950119E0
5.033299499E0,-3.477000237E0,9.360000610E0,-2.965950251E0
5.035833117E0,-3.760050297E0,9.286050797E0,-3.178950071E0
5.038366884E0,-3.904050112E0,9.304950714E0,-3.153000116E0
5.040900424E0,-3.832050085E0,9.292950630E0,-3.301950216E0
5.043434029E0,-3.645000219E0,9.078000069E0,-3.388050079E0
5.045967798E0,-3.400950193E0,8.812050819E0,-3.298950195E0
5.048501338E0,-2.971950054E0,8.452950478E0,-3.361050129E0
5.051034952E0,-2.620050192E0,8.047950745E0,-3.402000189E0
5.053568692E0,-2.172000170E0,7.579050541E0,-3.522000074E0
5.056102233E0,-1.606950045E0,7.195050240E0,-3.493050098E0
5.058635846E0,-9.700500369E-1,6.810000420E0,-3.558000088E0
5.061169386E0,-4.240500331E-1,6.762000084E0,-3.642000198E0
5.063703236E0,-5.479500294E-1,6.967950344E0,-3.795000076E0
5.066236776E0,-6.850500107E-1,7.131000519E0,-3.910050154E0
5.068770543E0,-6.990000606E-1,7.363050461E0,-4.386000156E0
5.071304161E0,-7.879500389E-1,7.425000191E0,-4.444050312E0
5.073837699E0,-6.850500107E-1,7.453950405E0,-4.738950253E0
5.076371466E0,-5.170500278E-1,7.408950329E0,-4.885050297E0
5.078905007E0,-5.200500488E-1,7.273950577E0,-4.897050381E0
5.081438620E0,-3.690000176E-1,6.862050533E0,-4.726950169E0
5.083972414E0,-4.879500270E-1,6.769050121E0,-4.470000267E0
5.086505955E0,-7.609500289E-1,6.775950432E0,-4.846050262E0
5.089039568E0,3.300000131E-1,6.718950272E0,-4.588050365E0
5.091573338E0,6.750000119E-1,6.867000103E0,-3.792000294E0
5.094106959E0,1.159500033E-1,7.015950203E0,-4.161000252E0
5.096640497E0,1.909500062E-1,7.084950447E0,-4.522950172E0
5.099174265E0,3.180000186E-1,7.267050266E0,-4.165950298E0
5.101707882E0,8.299500346E-1,7.381950378E0,-3.835950136E0
5.104241421E0,1.225050092E0,7.686000347E0,-3.496050119E0
5.106775265E0,1.575000048E0,7.947000504E0,-3.472050190E0
5.109308805E0,1.909950137E0,8.242050171E0,-3.766050100E0
5.111842572E0,2.047049999E0,8.529000282E0,-3.880950212E0
5.114376128E0,1.395000100E0,8.704050064E0,-3.175050259E0
5.116909741E0,1.359000087E0,8.877000809E0,-2.386950016E0
5.119443510E0,4.900500178E-1,1.022295094E1,-3.166950226E0
5.121977051E0,1.455000043E0,9.580950737E0,-2.458050013E0
5.124510659E0,2.152050018E0,8.781000137E0,-3.493050098E0
5.127044429E0,1.233000040E0,9.001049995E0,-3.642000198E0
5.129577969E0,1.369050026E0,8.821949959E0,-3.292050123E0
5.132111582E0,9.829500318E-1,8.889000893E0,-3.241950035E0
5.134645357E0,5.310000181E-1,8.994000435E0,-3.220050097E0
5.137178897E0,4.905000329E-2,9.174000740E0,-3.735000134E0
5.139712511E0,-6.559500098E-1,9.253050804E0,-3.871950150E0
5.142246280E0,-1.240950108E0,9.384000778E0,-4.330950260E0
5.144779824E0,-1.690950036E0,9.600000381E0,-4.413000107E0
5.147313438E0,-1.837050080E0,9.877950668E0,-4.450950146E0
5.149847207E0,-1.945050120E0,9.925950050E0,-4.116000175E0
5.152380824E0,-2.074050188E0,9.946950912E0,-3.763950109E0
5.154914363E0,-1.786950111E0,9.895050049E0,-3.912000179E0
5.157448130E0,-1.672050118E0,9.715050697E0,-3.943050146E0
5.159981670E0,-1.710000038E0,9.616950035E0,-4.087049961E0
5.162515284E0,-1.747950077E0,9.643050194E0,-3.943050146E0
5.165049058E0,-2.158050060E0,9.657000542E0,-4.425000191E0
5.167582599E0,-2.296950102E0,9.583050728E0,-4.588050365E0
5.170116212E0,-2.412000179E0,9.492000580E0,-4.564050198E0
5.172649981E0,-2.725050211E0,9.490050316E0,-4.549050331E0
5.175183546E0,-3.039000034E0,9.406050682E0,-4.609050274E0
5.177717159E0,-3.031950235E0,9.123000145E0,-5.062050343E0
5.180250928E0,-2.851950169E0,8.773950577E0,-5.028000355E0
5.182784546E0,-2.608050108E0,8.347050667E0,-5.218050480E0
5.185318079E0,-2.175000191E0,7.975950241E0,-5.404050350E0
5.187851846E0,-1.818000078E0,7.864050388E0,-5.185950279E0
5.190385464E0,-1.630950093E0,7.962000370E0,-5.092950344E0
5.192919002E0,-1.450950027E0,8.092950821E0,-4.999950409E0
5.195452755E0,-1.264050007E0,8.307000160E0,-4.779000282E0
5.197986373E0,-1.236000061E0,8.521950722E0,-4.636050224E0
5.200520140E0,-1.132950068E0,8.661000252E0,-4.588050365E0
5.203053681E0,-1.126049995E0,8.761950493E0,-4.530000210E0
5.205587289E0,-1.207050085E0,8.689949989E0,-4.470000267E0
5.208121058E0,-1.219050050E0,8.616000175E0,-4.525050163E0
5.210654599E0,-1.123050094E0,8.653950691E0,-4.396049976E0
5.213188212E0,-1.084950089E0,8.862000465E0,-4.189949989E0
5.215721757E0,-8.980500698E-1,9.079950333E0,-4.063050270E0
5.218255525E0,-7.810500264E-1,9.250050545E0,-4.032000065E0
5.220789142E0,-7.830000520E-1,9.391950607E0,-3.895050287E0
5.223322681E0,-7.060500383E-1,9.519000053E0,-3.876000166E0
5.225856525E0,-5.389500260E-1,9.435000420E0,-3.673050165E0
5.228390065E0,-5.749500394E-1,9.466050148E0,-3.724950075E0
5.230923832E0,-4.429500103E-1,9.420000076E0,-3.697050095E0
5.233457373E0,-9.300000221E-2,9.310050011E0,-3.591000080E0
5.235990971E0,7.729500532E-1,9.078000069E0,-3.577050209E0
5.238524741E0,1.065000057E0,9.063000679E0,-3.258000135E0
5.241058281E0,1.168050051E0,9.138000488E0,-3.166950226E0
5.243591894E0,1.015050054E0,9.138000488E0,-3.145950079E0
5.246125654E0,6.600000262E-1,9.169050217E0,-3.289950132E0
5.248659194E0,5.279999971E-1,9.075000763E0,-3.472050190E0
5.251192807E0,4.330500066E-1,8.872050285E0,-3.751950264E0
