"Time (s)","Gyroscope x (rad/s)","Gyroscope y (rad/s)","Gyroscope z (rad/s)"
2.155788800E-2,1.512499992E-2,-2.626249939E-2,2.736249939E-2
3.696700900E-2,2.461249940E-2,-1.347499993E-2,-6.737499963E-3
3.949785000E-2,2.571249940E-2,-9.212499484E-3,-8.799999952E-3
4.203146500E-2,2.791249938E-2,-1.017499994E-2,-1.416249946E-2
4.456523500E-2,2.887500077E-2,-9.212499484E-3,-1.842499897E-2
4.709877300E-2,2.791249938E-2,-9.212499484E-3,-1.732499897E-2
4.963238800E-2,2.887500077E-2,-1.127499994E-2,-1.622499898E-2
5.216615800E-2,2.681249939E-2,-1.127499994E-2,-1.622499898E-2
5.469969800E-2,2.887500077E-2,-1.443750039E-2,-1.526249945E-2
5.723331100E-2,2.681249939E-2,-1.443750039E-2,-1.622499898E-2
5.976685200E-2,2.681249939E-2,-1.869999990E-2,-1.952499896E-2
6.230061900E-2,2.681249939E-2,-2.089999989E-2,-2.268750034E-2
6.483423700E-2,2.571249940E-2,-2.406249940E-2,-2.694999985E-2
6.736802300E-2,2.997500077E-2,-2.626249939E-2,-3.121249937E-2
6.990156300E-2,3.107500076E-2,-2.516249940E-2,-2.901249938E-2
7.243517700E-2,3.423750028E-2,-2.942499891E-2,-3.217500076E-2
7.496871700E-2,3.629999980E-2,-3.258749843E-2,-3.327500075E-2
7.750248000E-2,4.056249931E-2,-3.464999795E-2,-2.804999985E-2
8.003609800E-2,4.166249931E-2,-3.575000167E-2,-2.901249938E-2
8.256986500E-2,4.166249931E-2,-4.001250118E-2,-3.217500076E-2
8.510340500E-2,4.166249931E-2,-3.795000166E-2,-2.694999985E-2
8.763701400E-2,4.166249931E-2,-3.684999794E-2,-2.694999985E-2
9.017055400E-2,4.056249931E-2,-3.684999794E-2,-2.804999985E-2
9.270432200E-2,4.056249931E-2,-3.464999795E-2,-2.474999987E-2
9.523793900E-2,3.959999979E-2,-3.258749843E-2,-2.268750034E-2
9.777146700E-2,4.276249930E-2,-3.368749842E-2,-2.378750034E-2
1.003052350E-1,4.276249930E-2,-3.464999795E-2,-2.474999987E-2
1.028387750E-1,4.592499882E-2,-3.795000166E-2,-1.732499897E-2
1.053723890E-1,5.238749832E-2,-3.575000167E-2,-1.622499898E-2
1.079061580E-1,5.761250108E-2,-3.464999795E-2,-1.416249946E-2
1.104396980E-1,5.981250107E-2,-3.684999794E-2,-1.099999994E-2
1.129733120E-1,6.723749638E-2,-3.795000166E-2,-6.737499963E-3
1.155068520E-1,7.259999961E-2,-3.368749842E-2,-4.537499975E-3
1.180406380E-1,7.576250285E-2,-3.258749843E-2,-2.749999985E-4
1.205742560E-1,7.782500237E-2,-3.148749843E-2,1.787499990E-3
1.231080230E-1,8.112499863E-2,-2.722499892E-2,3.987499978E-3
1.256415630E-1,8.524999768E-2,-2.199999988E-2,1.141249947E-2
1.281751820E-1,8.524999768E-2,-1.553750038E-2,1.347499993E-2
1.307087220E-1,8.951249719E-2,-1.237499993E-2,1.567500085E-2
1.332424900E-1,9.061250091E-2,-9.212499484E-3,2.103750035E-2
1.357761070E-1,9.061250091E-2,-8.112499490E-3,1.883750036E-2
1.383096160E-1,9.377499670E-2,-5.912499968E-3,2.103750035E-2
1.408433840E-1,9.061250091E-2,-4.949999973E-3,2.199999988E-2
1.433769240E-1,8.855000138E-2,-7.012499962E-3,2.516249940E-2
1.459105370E-1,8.635000139E-2,-8.112499490E-3,2.419999987E-2
1.484443020E-1,8.524999768E-2,-8.112499490E-3,2.516249940E-2
1.509779190E-1,8.112499863E-2,-1.237499993E-2,2.309999987E-2
1.535114580E-1,7.576250285E-2,-1.553750038E-2,2.103750035E-2
1.560452250E-1,7.039999962E-2,-1.663750038E-2,2.199999988E-2
1.585787560E-1,6.723749638E-2,-2.199999988E-2,2.516249940E-2
1.611123700E-1,6.297499686E-2,-2.832499892E-2,2.626249939E-2
1.636461390E-1,5.761250108E-2,-3.038750030E-2,2.736249939E-2
1.661796790E-1,5.238749832E-2,-3.038750030E-2,2.846249938E-2
1.687132830E-1,4.482499883E-2,-3.368749842E-2,2.846249938E-2
1.712470520E-1,3.959999979E-2,-3.464999795E-2,2.942499891E-2
1.737805920E-1,3.423750028E-2,-3.464999795E-2,3.052499890E-2
1.763142060E-1,2.681249939E-2,-3.148749843E-2,3.162499890E-2
1.788479800E-1,1.828750037E-2,-3.038750030E-2,3.162499890E-2
1.813815210E-1,1.512499992E-2,-2.722499892E-2,3.162499890E-2
1.839151340E-1,9.762499481E-3,-2.199999988E-2,3.272499889E-2
1.864486740E-1,6.599999964E-3,-1.553750038E-2,3.162499890E-2
1.889824420E-1,4.399999976E-3,-1.127499994E-2,3.588749841E-2
1.915160590E-1,5.499999970E-3,-7.012499962E-3,3.478749841E-2
1.940495970E-1,8.662499487E-3,-4.949999973E-3,3.588749841E-2
1.965833650E-1,8.662499487E-3,-8.112499490E-3,3.368749842E-2
1.991169870E-1,7.562499959E-3,-8.112499490E-3,3.272499889E-2
2.016505260E-1,9.762499481E-3,-8.112499490E-3,3.368749842E-2
2.041842930E-1,4.399999976E-3,-1.017499994E-2,3.368749842E-2
2.067179100E-1,-1.924999990E-3,-1.347499993E-2,3.272499889E-2
2.092514580E-1,-4.124999978E-3,-1.443750039E-2,3.272499889E-2
2.117852250E-1,-4.124999978E-3,-1.347499993E-2,3.162499890E-2
2.143188420E-1,-1.924999990E-3,-1.237499993E-2,3.368749842E-2
2.168523810E-1,1.374999993E-4,-1.127499994E-2,3.368749842E-2
2.193861480E-1,1.237499993E-3,-1.237499993E-2,3.368749842E-2
2.219196840E-1,1.237499993E-3,-1.127499994E-2,3.698749840E-2
2.244532980E-1,1.237499993E-3,-1.237499993E-2,3.698749840E-2
2.269868380E-1,1.237499993E-3,-1.347499993E-2,3.368749842E-2
2.295206830E-1,1.374999993E-4,-1.553750038E-2,3.698749840E-2
2.320542230E-1,1.237499993E-3,-1.663750038E-2,3.795000166E-2
2.345879940E-1,1.374999993E-4,-1.869999990E-2,3.904999793E-2
2.371215350E-1,-1.924999990E-3,-2.089999989E-2,3.904999793E-2
2.396551480E-1,-4.124999978E-3,-2.296249941E-2,3.478749841E-2
2.421886890E-1,-4.124999978E-3,-2.296249941E-2,3.588749841E-2
2.447224560E-1,-1.924999990E-3,-2.296249941E-2,3.904999793E-2
2.472560730E-1,-3.024999984E-3,-1.869999990E-2,4.015000165E-2
2.497896120E-1,-4.124999978E-3,-1.773750037E-2,4.124999791E-2
2.523233790E-1,-8.249999955E-4,-1.663750038E-2,4.221250117E-2
2.548569960E-1,2.337499987E-3,-1.773750037E-2,4.551250115E-2
2.573907630E-1,2.337499987E-3,-1.663750038E-2,4.551250115E-2
2.599243040E-1,1.374999993E-4,-1.553750038E-2,4.757500067E-2
2.624579170E-1,3.437499981E-3,-1.663750038E-2,5.073750019E-2
2.649914530E-1,3.437499981E-3,-1.553750038E-2,5.183750018E-2
2.675252200E-1,-8.249999955E-4,-1.663750038E-2,5.183750018E-2
2.700588370E-1,3.437499981E-3,-1.773750037E-2,5.183750018E-2
2.725923760E-1,5.499999970E-3,-1.663750038E-2,5.293750018E-2
2.751261480E-1,4.399999976E-3,-1.773750037E-2,5.293750018E-2
2.776596890E-1,6.599999964E-3,-1.869999990E-2,5.293750018E-2
2.801933020E-1,3.437499981E-3,-1.979999989E-2,5.389999971E-2
2.827268420E-1,3.437499981E-3,-2.199999988E-2,5.816249922E-2
2.852606970E-1,1.374999993E-4,-2.296249941E-2,5.926249921E-2
2.877942370E-1,-4.124999978E-3,-2.626249939E-2,5.719999969E-2
2.903280040E-1,-5.087499972E-3,-2.722499892E-2,5.816249922E-2
2.928615450E-1,-1.924999990E-3,-2.722499892E-2,5.499999970E-2
2.953951630E-1,-5.087499972E-3,-2.722499892E-2,5.389999971E-2
2.979289320E-1,-3.024999984E-3,-3.148749843E-2,5.499999970E-2
3.004625450E-1,-1.924999990E-3,-3.038750030E-2,5.073750019E-2
3.029961820E-1,-3.024999984E-3,-2.722499892E-2,4.963750020E-2
3.055330090E-1,-4.124999978E-3,-2.722499892E-2,4.331250116E-2
3.080634290E-1,-1.924999990E-3,-2.942499891E-2,4.221250117E-2
3.105970420E-1,-1.924999990E-3,-3.258749843E-2,4.221250117E-2
3.131305810E-1,-3.024999984E-3,-3.258749843E-2,3.698749840E-2
3.156643500E-1,-6.187499966E-3,-3.148749843E-2,3.272499889E-2
3.181979620E-1,-5.087499972E-3,-3.258749843E-2,3.272499889E-2
3.207315010E-1,-5.087499972E-3,-2.832499892E-2,2.846249938E-2
3.232652680E-1,-7.287499961E-3,-3.148749843E-2,2.199999988E-2
3.257988860E-1,-5.087499972E-3,-3.464999795E-2,2.309999987E-2
3.283324440E-1,-4.124999978E-3,-3.258749843E-2,2.103750035E-2
3.308662110E-1,-3.024999984E-3,-3.038750030E-2,1.993750036E-2
3.333998290E-1,-8.249999955E-4,-3.038750030E-2,1.677500084E-2
3.359333670E-1,4.399999976E-3,-3.148749843E-2,1.677500084E-2
3.384671620E-1,4.399999976E-3,-3.038750030E-2,1.347499993E-2
3.410007800E-1,9.762499481E-3,-2.832499892E-2,1.251249947E-2
3.435343180E-1,1.182499994E-2,-2.722499892E-2,1.567500085E-2
3.460680850E-1,1.512499992E-2,-2.832499892E-2,1.457499992E-2
3.486016310E-1,2.034999989E-2,-2.832499892E-2,1.251249947E-2
3.511352440E-1,2.364999987E-2,-3.038750030E-2,9.212499484E-3
3.536690140E-1,2.461249940E-2,-3.464999795E-2,7.149999961E-3
3.562025540E-1,2.887500077E-2,-4.221250117E-2,7.149999961E-3
3.587361570E-1,2.887500077E-2,-5.073750019E-2,8.249999955E-3
3.612696980E-1,2.791249938E-2,-5.816249922E-2,4.949999973E-3
3.638034650E-1,3.107500076E-2,-6.764999777E-2,1.787499990E-3
3.663370830E-1,3.313750029E-2,-7.411249727E-2,6.874999963E-4
3.688708550E-1,3.423750028E-2,-8.153750002E-2,6.874999963E-4
3.714043950E-1,3.533750027E-2,-9.006249905E-2,6.874999963E-4
3.739380090E-1,3.959999979E-2,-9.542500228E-2,-2.749999985E-4
3.764715490E-1,4.482499883E-2,-1.039500013E-1,6.874999963E-4
3.790053210E-1,4.482499883E-2,-1.113749966E-1,1.787499990E-3
3.815389390E-1,4.702499881E-2,-1.187999994E-1,1.787499990E-3
3.840724770E-1,5.018749833E-2,-1.241625026E-1,1.787499990E-3
3.866062440E-1,5.018749833E-2,-1.273249984E-1,6.049999967E-3
3.891397800E-1,5.238749832E-2,-1.304875016E-1,7.149999961E-3
3.916736240E-1,5.335000157E-2,-1.336500049E-1,4.949999973E-3
3.942071650E-1,5.335000157E-2,-1.421750039E-1,4.949999973E-3
3.967407030E-1,5.871250108E-2,-1.486375034E-1,6.049999967E-3
3.992743110E-1,5.981250107E-2,-1.560624987E-1,6.049999967E-3
4.018080810E-1,6.187500060E-2,-1.655499935E-1,8.249999955E-3
4.043416210E-1,6.187500060E-2,-1.731124967E-1,1.031249948E-2
4.068752340E-1,6.077500060E-2,-1.816374958E-1,1.251249947E-2
4.094090190E-1,6.187500060E-2,-1.857624948E-1,1.251249947E-2
4.119425590E-1,5.871250108E-2,-1.953874975E-1,1.457499992E-2
4.144761730E-1,5.761250108E-2,-2.050125003E-1,1.567500085E-2
4.170097130E-1,5.871250108E-2,-2.081750035E-1,1.347499993E-2
4.195434890E-1,5.981250107E-2,-2.081750035E-1,1.251249947E-2
4.220771070E-1,6.407500058E-2,-2.135374993E-1,1.251249947E-2
4.246108740E-1,6.613750011E-2,-2.167000026E-1,1.031249948E-2
4.271444140E-1,6.929999590E-2,-2.209624946E-1,9.212499484E-3
4.296780480E-1,7.150000334E-2,-2.337500006E-1,7.149999961E-3
4.322115880E-1,7.782500237E-2,-2.400749922E-1,-1.374999993E-3
4.347453550E-1,8.524999768E-2,-2.454375029E-1,-4.537499975E-3
4.372789730E-1,8.951249719E-2,-2.496999949E-1,-8.799999952E-3
4.398125200E-1,9.061250091E-2,-2.528625131E-1,-1.622499898E-2
4.423462880E-1,9.597499669E-2,-2.602874935E-1,-2.158750035E-2
4.448798280E-1,1.002374962E-1,-2.699125111E-1,-3.011249937E-2
4.474134410E-1,1.013374999E-1,-2.784374952E-1,-4.606249928E-2
4.499472110E-1,1.023000032E-1,-2.858625054E-1,-5.775000155E-2
4.524808280E-1,9.597499669E-2,-2.879250050E-1,-6.737499684E-2
4.550143670E-1,9.281250089E-2,-2.901250124E-1,-8.332499862E-2
4.575481340E-1,9.061250091E-2,-2.901250124E-1,-1.003749967E-1
4.600816690E-1,8.744999766E-2,-2.677125037E-1,-1.205874979E-1
4.626152830E-1,8.524999768E-2,-2.294874936E-1,-1.333750039E-1
4.651490520E-1,7.892499864E-2,-1.816374958E-1,-1.428624988E-1
4.676825920E-1,7.039999962E-2,-1.518000066E-1,-1.450625062E-1
4.702162060E-1,6.407500058E-2,-1.358499974E-1,-1.513874978E-1
4.727497460E-1,5.651250109E-2,-1.262249947E-1,-1.556500047E-1
4.752835130E-1,5.335000157E-2,-1.187999994E-1,-1.535875052E-1
4.778171310E-1,5.238749832E-2,-1.156374961E-1,-1.461624950E-1
4.803509170E-1,5.444999784E-2,-1.156374961E-1,-1.419000030E-1
4.828844570E-1,5.871250108E-2,-1.187999994E-1,-1.407999992E-1
4.854180710E-1,5.981250107E-2,-1.199000031E-1,-1.365374923E-1
4.879516110E-1,5.981250107E-2,-1.156374961E-1,-1.354375035E-1
4.904853890E-1,5.981250107E-2,-1.113749966E-1,-1.365374923E-1
4.930190060E-1,5.761250108E-2,-1.176999956E-1,-1.343374997E-1
4.955525440E-1,5.555000156E-2,-1.219625026E-1,-1.322750002E-1
4.980863120E-1,5.238749832E-2,-1.251250058E-1,-1.311749965E-1
5.006198280E-1,5.018749833E-2,-1.241625026E-1,-1.333750039E-1
5.031536720E-1,4.276249930E-2,-1.176999956E-1,-1.385999918E-1
5.056872130E-1,3.423750028E-2,-9.322500229E-2,-1.567499936E-1
5.082208280E-1,2.254999988E-2,-4.853750020E-2,-1.673374921E-1
5.107543780E-1,1.292499993E-2,4.124999978E-4,-1.588124931E-1
5.132881450E-1,5.499999970E-3,3.341250122E-2,-1.354375035E-1
5.158216850E-1,2.337499987E-3,3.877500072E-2,-1.035374999E-1
5.183552990E-1,-1.924999990E-3,3.024999984E-2,-7.906249911E-2
5.208890860E-1,-9.349999949E-3,1.636249945E-2,-6.421250105E-2
5.234226260E-1,-1.361249946E-2,6.737499963E-3,-5.775000155E-2
5.259562400E-1,-2.529999986E-2,1.319999993E-2,-5.664999783E-2
5.284900090E-1,-3.712499887E-2,2.598750032E-2,-4.606249928E-2
5.310235500E-1,-5.197500065E-2,4.509999976E-2,-3.011249937E-2
5.335571630E-1,-6.256250292E-2,6.215000153E-2,-1.306249946E-2
5.360907030E-1,-7.535000145E-2,7.809999585E-2,3.987499978E-3
5.386244710E-1,-8.277499676E-2,9.088750184E-2,2.199999988E-2
5.411581070E-1,-9.350000322E-2,9.515000135E-2,3.698749840E-2
5.436916450E-1,-1.040875018E-1,9.941250086E-2,4.963750020E-2
5.462254130E-1,-1.051874980E-1,9.831249714E-2,5.816249922E-2
5.487590300E-1,-1.062875018E-1,9.515000135E-2,6.572499871E-2
5.512925500E-1,-1.062875018E-1,8.868750185E-2,7.521250099E-2
5.538263170E-1,-1.029874980E-1,7.919999957E-2,8.263749629E-2
5.563599340E-1,-1.020250022E-1,6.641250104E-2,9.116250277E-2
5.588934730E-1,-9.776250273E-2,4.826249927E-2,9.336250275E-2
5.614272640E-1,-9.776250273E-2,3.231250122E-2,9.542500228E-2
5.639608810E-1,-9.776250273E-2,1.856249943E-2,1.007874981E-1
5.664944200E-1,-9.556250274E-2,8.937500417E-3,1.050499976E-1
5.690281870E-1,-9.350000322E-2,1.512499992E-3,1.061500013E-1
5.715617940E-1,-9.239999950E-2,-2.749999985E-3,1.039500013E-1
5.740953330E-1,-8.813749999E-2,-8.112499490E-3,1.039500013E-1
5.766291000E-1,-8.607500046E-2,-1.347499993E-2,1.018875018E-1
5.791626410E-1,-8.071249723E-2,-1.017499994E-2,1.018875018E-1
5.816962260E-1,-8.277499676E-2,-1.347499993E-2,1.007874981E-1
5.842297660E-1,-8.277499676E-2,-1.773750037E-2,9.652499855E-2
5.867636110E-1,-8.277499676E-2,-1.979999989E-2,9.336250275E-2
5.892971510E-1,-8.387500048E-2,-1.553750038E-2,9.116250277E-2
5.918309180E-1,-8.703749627E-2,-1.663750038E-2,8.799999952E-2
5.943644590E-1,-9.350000322E-2,-2.199999988E-2,8.263749629E-2
5.968980720E-1,-9.459999949E-2,-2.089999989E-2,7.521250099E-2
5.994316130E-1,-9.886249900E-2,-2.089999989E-2,6.998749822E-2
6.019653890E-1,-1.009249985E-1,-2.296249941E-2,6.572499871E-2
6.044990060E-1,-1.029874980E-1,-2.516249940E-2,5.816249922E-2
6.070325450E-1,-9.982500225E-2,-2.722499892E-2,4.757500067E-2
6.095663120E-1,-9.776250273E-2,-3.368749842E-2,4.551250115E-2
6.120998480E-1,-9.350000322E-2,-3.684999794E-2,3.904999793E-2
6.146336930E-1,-9.239999950E-2,-4.647500068E-2,3.368749842E-2
6.171672330E-1,-8.813749999E-2,-5.169999972E-2,2.942499891E-2
6.197008480E-1,-8.181250095E-2,-5.816249922E-2,2.516249940E-2
6.222343870E-1,-7.755000144E-2,-6.558749825E-2,2.419999987E-2
6.247681540E-1,-7.535000145E-2,-7.095000148E-2,1.883750036E-2
6.273017720E-1,-7.218749821E-2,-7.617499679E-2,1.773750037E-2
6.298353100E-1,-7.218749821E-2,-7.933750004E-2,1.773750037E-2
6.323690580E-1,-6.682500243E-2,-8.470000327E-2,1.677500084E-2
6.349025990E-1,-6.256250292E-2,-8.689999580E-2,1.677500084E-2
6.374362120E-1,-6.159999967E-2,-8.579999954E-2,2.103750035E-2
6.399697530E-1,-5.939999968E-2,-8.470000327E-2,2.419999987E-2
6.425035150E-1,-5.513750017E-2,-8.263749629E-2,2.626249939E-2
6.450371320E-1,-5.197500065E-2,-7.727500051E-2,3.368749842E-2
6.475708990E-1,-5.197500065E-2,-6.668750197E-2,3.698749840E-2
6.501044400E-1,-5.403750017E-2,-5.073750019E-2,4.647500068E-2
6.526380390E-1,-5.623750016E-2,-3.148749843E-2,5.293750018E-2
6.551718090E-1,-5.939999968E-2,-1.127499994E-2,5.816249922E-2
6.577053490E-1,-6.682500243E-2,5.774999969E-3,6.572499871E-2
6.602389620E-1,-7.424999774E-2,1.952499896E-2,6.998749822E-2
6.627725170E-1,-8.071249723E-2,2.282499894E-2,7.095000148E-2
6.653062840E-1,-9.886249900E-2,2.282499894E-2,7.095000148E-2
6.678398250E-1,-1.168750003E-1,1.952499896E-2,6.998749822E-2
6.703736690E-1,-1.307625026E-1,1.319999993E-2,7.095000148E-2
6.729071940E-1,-1.435499936E-1,5.774999969E-3,6.668750197E-2
6.754408100E-1,-1.498750001E-1,8.937500417E-3,6.242499873E-2
6.779743480E-1,-1.530375034E-1,1.429999992E-2,5.719999969E-2
6.805081150E-1,-1.467124969E-1,1.952499896E-2,5.719999969E-2
6.830417370E-1,-1.413500011E-1,2.488750033E-2,5.183750018E-2
6.855752750E-1,-1.317249984E-1,3.341250122E-2,4.647500068E-2
6.881090420E-1,-1.157749966E-1,4.303750023E-2,4.551250115E-2
6.906426600E-1,-1.051874980E-1,5.142499879E-2,4.331250116E-2
6.931762180E-1,-9.239999950E-2,5.678749830E-2,4.441250116E-2
6.957097570E-1,-8.071249723E-2,5.995000154E-2,4.551250115E-2
6.982435240E-1,-6.586249918E-2,6.641250104E-2,4.647500068E-2
7.007771410E-1,-5.307500064E-2,6.957499683E-2,4.867500067E-2
7.033109040E-1,-4.028749838E-2,7.067500055E-2,4.647500068E-2
7.058444440E-1,-2.749999985E-2,7.067500055E-2,4.551250115E-2
7.083780570E-1,-1.581249945E-2,7.273750007E-2,4.757500067E-2
7.109118270E-1,-4.124999978E-3,6.957499683E-2,5.073750019E-2
7.134453670E-1,7.562499959E-3,6.324999779E-2,4.867500067E-2
7.159789810E-1,1.938750036E-2,5.788749829E-2,4.551250115E-2
7.185125210E-1,3.203750029E-2,5.568749830E-2,4.647500068E-2
7.210462880E-1,4.702499881E-2,5.046249926E-2,4.757500067E-2
7.235798960E-1,5.444999784E-2,4.193750024E-2,5.073750019E-2
7.261136630E-1,6.091250107E-2,3.547500074E-2,4.647500068E-2
7.286472030E-1,6.503749639E-2,3.231250122E-2,4.867500067E-2
7.311808170E-1,7.259999961E-2,3.231250122E-2,5.609999970E-2
7.337143470E-1,7.466249913E-2,3.657500073E-2,6.242499873E-2
7.362481140E-1,7.782500237E-2,3.657500073E-2,6.668750197E-2
7.387817320E-1,8.002500236E-2,3.973750025E-2,6.668750197E-2
7.413152700E-1,8.112499863E-2,4.193750024E-2,6.998749822E-2
7.438490580E-1,8.112499863E-2,4.399999976E-2,6.998749822E-2
7.463825980E-1,8.635000139E-2,4.509999976E-2,6.668750197E-2
7.489162110E-1,9.061250091E-2,4.826249927E-2,7.095000148E-2
7.514499810E-1,9.487500042E-2,4.729999974E-2,7.095000148E-2
7.539835210E-1,1.033999994E-1,4.399999976E-2,6.668750197E-2
7.565171340E-1,1.044999957E-1,3.877500072E-2,6.146249920E-2
7.590506750E-1,1.055999994E-1,3.024999984E-2,5.816249922E-2
7.615844420E-1,1.119249985E-1,2.062499896E-2,5.073750019E-2
7.641180450E-1,1.150875017E-1,1.003750041E-2,4.537500069E-2
7.666518120E-1,1.193500012E-1,4.674999975E-3,4.015000165E-2
7.691853520E-1,1.236125007E-1,-6.874999963E-4,3.272499889E-2
7.717189660E-1,1.300749928E-1,-2.749999985E-3,2.846249938E-2
7.742525110E-1,1.384624988E-1,-1.017499994E-2,2.736249939E-2
7.767862780E-1,1.427250057E-1,-9.212499484E-3,2.419999987E-2
7.793198960E-1,1.469874978E-1,-8.112499490E-3,1.773750037E-2
7.818534340E-1,1.545500010E-1,-1.347499993E-2,1.677500084E-2
7.843871860E-1,1.619749963E-1,-1.443750039E-2,1.677500084E-2
7.869208040E-1,1.671999991E-1,-1.237499993E-2,1.773750037E-2
7.894543420E-1,1.747625023E-1,-1.663750038E-2,1.773750037E-2
7.919881100E-1,1.832875013E-1,-1.663750038E-2,1.677500084E-2
7.945217460E-1,1.907124966E-1,-1.869999990E-2,1.883750036E-2
7.970552840E-1,1.981374919E-1,-2.199999988E-2,1.993750036E-2
7.995890520E-1,2.077624947E-1,-2.612499893E-2,2.199999988E-2
8.021225920E-1,2.140875012E-1,-2.942499891E-2,2.309999987E-2
8.046561960E-1,2.215124965E-1,-3.038750030E-2,2.626249939E-2
8.071899660E-1,2.311374992E-1,-3.795000166E-2,3.162499890E-2
8.097235830E-1,2.439250052E-1,-6.132499874E-2,3.588749841E-2
8.122571220E-1,2.534124851E-1,-8.470000327E-2,4.221250117E-2
8.147908740E-1,2.459875047E-1,-7.191249728E-2,4.867500067E-2
8.173244140E-1,2.374625057E-1,-6.668750197E-2,4.867500067E-2
8.198580280E-1,2.439250052E-1,-8.579999954E-2,4.331250116E-2
8.223917970E-1,2.513499856E-1,-9.542500228E-2,4.331250116E-2
8.249253370E-1,2.545124888E-1,-9.116250277E-2,4.537500069E-2
8.274589320E-1,2.534124851E-1,-9.748750180E-2,5.183750018E-2
8.299924720E-1,2.556124926E-1,-1.049124971E-1,5.609999970E-2
8.325262390E-1,2.439250052E-1,-1.113749966E-1,6.146249920E-2
8.350598570E-1,2.257750034E-1,-1.208624989E-1,6.462500244E-2
8.375936290E-1,2.129874974E-1,-1.304875016E-1,6.462500244E-2
8.401271700E-1,2.055625021E-1,-1.401125044E-1,6.462500244E-2
8.426607830E-1,1.927749962E-1,-1.432749927E-1,6.888750196E-2
8.451943230E-1,1.810874939E-1,-1.379124969E-1,7.315000147E-2
8.477280910E-1,1.630750000E-1,-1.347499937E-1,7.741250098E-2
8.502617080E-1,1.469874978E-1,-1.358499974E-1,8.057499677E-2
8.527952470E-1,1.300749928E-1,-1.325500011E-1,8.910000324E-2
8.553290140E-1,1.119249985E-1,-1.273249984E-1,9.336250275E-2
8.578625350E-1,8.951249719E-2,-1.199000031E-1,9.652499855E-2
8.603963790E-1,7.039999962E-2,-1.113749966E-1,1.028499976E-1
8.629299200E-1,5.018749833E-2,-1.091749966E-1,1.071124971E-1
8.654634580E-1,3.423750028E-2,-9.968750179E-2,1.124750003E-1
8.679970720E-1,2.364999987E-2,-9.006249905E-2,1.220999956E-1
8.705308410E-1,7.699999958E-3,-7.521250099E-2,1.295250058E-1
8.730644580E-1,-7.287499961E-3,-5.389999971E-2,1.369500011E-1
8.755979970E-1,-2.529999986E-2,-3.258749843E-2,1.465750039E-1
8.781317830E-1,-3.808749840E-2,-1.127499994E-2,1.582625061E-1
8.806653240E-1,-5.307500064E-2,6.737499963E-3,1.699499935E-1
8.831989370E-1,-6.902500242E-2,2.488750033E-2,1.816374958E-1
8.857324770E-1,-8.703749627E-2,4.509999976E-2,1.955250055E-1
8.882662450E-1,-1.040875018E-1,6.641250104E-2,2.061125040E-1
8.907998620E-1,-1.254000068E-1,8.978749812E-2,2.157374918E-1
8.933336290E-1,-1.456124932E-1,1.227874979E-1,2.231625021E-1
8.958671700E-1,-1.595000029E-1,1.526249945E-1,2.305874974E-1
8.984007880E-1,-1.626625061E-1,1.782000065E-1,2.413125038E-1
9.009345570E-1,-1.721500009E-1,1.663749963E-1,2.667500079E-1
9.034680980E-1,-1.849374920E-1,1.344749928E-1,2.987875044E-1
9.060017110E-1,-1.966249943E-1,1.046374962E-1,3.199625015E-1
9.085352510E-1,-2.073500007E-1,8.016250283E-2,3.264249861E-1
9.110690180E-1,-2.158749998E-1,6.421250105E-2,3.125374913E-1
9.136026350E-1,-2.179374993E-1,5.678749830E-2,2.945249975E-1
9.161361740E-1,-2.222000062E-1,4.303750023E-2,2.763749957E-1
9.186699130E-1,-2.201374918E-1,2.378750034E-2,2.678500116E-1
9.212034530E-1,-2.212374955E-1,1.003750041E-2,2.624875009E-1
9.237370670E-1,-2.253624946E-1,3.121249937E-2,2.572624981E-1
9.262708360E-1,-2.275625020E-1,6.957499683E-2,2.498375028E-1
9.288044530E-1,-2.222000062E-1,8.552499861E-2,2.487374991E-1
9.313379920E-1,-2.275625020E-1,1.249874979E-1,2.487374991E-1
9.338717590E-1,-2.574000061E-1,1.504250020E-1,2.498375028E-1
9.364053000E-1,-2.605625093E-1,1.494625062E-1,2.444749922E-1
9.389389130E-1,-2.520374954E-1,1.451999992E-1,2.455749959E-1
9.414726820E-1,-2.574000061E-1,1.472624987E-1,2.529999912E-1
9.440063000E-1,-2.563000023E-1,1.515250057E-1,2.539624870E-1
9.465398380E-1,-2.531374991E-1,1.451999992E-1,2.487374991E-1
9.490736290E-1,-2.457125038E-1,1.344749928E-1,2.422749996E-1
9.516071700E-1,-2.349874973E-1,1.270499974E-1,2.370499969E-1
9.541407830E-1,-2.275625020E-1,1.079374999E-1,2.294874936E-1
9.566745520E-1,-2.158749998E-1,8.126249909E-2,2.168374956E-1
9.592080830E-1,-1.999250054E-1,6.215000153E-2,2.029500008E-1
9.617416960E-1,-1.903000027E-1,4.619999975E-2,1.880999953E-1
9.642752370E-1,-1.913999915E-1,2.282499894E-2,1.667875051E-1
9.668090040E-1,-1.806750000E-1,-3.849999979E-3,1.551000029E-1
9.693426260E-1,-1.680250019E-1,-3.684999794E-2,1.454750001E-1
9.718761650E-1,-1.561999917E-1,-6.764999777E-2,1.348875016E-1
9.744099320E-1,-1.413500011E-1,-8.786249906E-2,1.273249984E-1
9.769434730E-1,-1.222374961E-1,-9.968750179E-2,1.189374998E-1
9.794770860E-1,-1.051874980E-1,-1.071124971E-1,1.071124971E-1
9.820108550E-1,-8.181250095E-2,-1.165999994E-1,1.028499976E-1
9.845444730E-1,-5.939999968E-2,-1.176999956E-1,1.050499976E-1
9.870780110E-1,-3.602499887E-2,-1.219625026E-1,1.082125008E-1
9.896118060E-1,-1.677500084E-2,-1.453374922E-1,1.189374998E-1
9.921453470E-1,-1.924999990E-3,-1.560624987E-1,1.306249946E-1
9.946789600E-1,1.086249948E-2,-1.783374995E-1,1.475374997E-1
9.972127290E-1,2.034999989E-2,-1.942874938E-1,1.625249982E-1
9.997462560E-1,2.997500077E-2,-1.868624985E-1,1.699499935E-1
1.002279869E0,4.166249931E-2,-1.953874975E-1,1.762750000E-1
1.004813410E0,4.702499881E-2,-1.996500045E-1,1.827374995E-1
1.007347177E0,5.128749833E-2,-1.911250055E-1,1.880999953E-1
1.009880794E0,5.238749832E-2,-1.847999990E-1,1.955250055E-1
1.012414552E0,5.335000157E-2,-1.443749964E-1,1.975875050E-1
1.014948092E0,5.555000156E-2,-1.134374961E-1,1.955250055E-1
1.017481705E0,4.592499882E-2,-9.432499856E-2,1.944250017E-1
1.020015246E0,3.217500076E-2,-7.837499678E-2,1.986874938E-1
1.022549009E0,1.182499994E-2,-5.816249922E-2,2.029500008E-1
1.025082627E0,-1.471249945E-2,-3.258749843E-2,2.040500045E-1
1.027616165E0,-4.661250114E-2,-1.649999991E-3,2.072124928E-1
1.030149932E0,-7.755000144E-2,3.024999984E-2,2.092749923E-1
1.032683521E0,-1.062875018E-1,7.273750007E-2,2.103749961E-1
1.035217059E0,-1.339250058E-1,1.216875017E-1,2.125750035E-1
1.037750826E0,-1.519374996E-1,1.621125042E-1,2.125750035E-1
1.040284444E0,-1.658249944E-1,1.759999990E-1,2.114749998E-1
1.042817977E0,-1.743499935E-1,1.876875013E-1,2.072124928E-1
1.045351744E0,-1.775124967E-1,2.026749998E-1,2.029500008E-1
1.047885362E0,-1.689874977E-1,2.153249979E-1,1.966249943E-1
1.050418900E0,-1.561999917E-1,2.186249942E-1,1.847999990E-1
1.052952654E0,-1.445125043E-1,2.292124927E-1,1.784749925E-1
1.055486194E0,-1.307625026E-1,2.355374992E-1,1.731124967E-1
1.058019807E0,-1.157749966E-1,2.121624947E-1,1.731124967E-1
1.060553577E0,-1.083500013E-1,1.643124968E-1,1.773750037E-1
1.063087126E0,-1.051874980E-1,1.036750004E-1,1.827374995E-1
1.065620740E0,-1.062875018E-1,5.046249926E-2,1.880999953E-1
1.068154509E0,-1.094499975E-1,1.099999994E-2,1.859000027E-1
1.070688049E0,-1.157749966E-1,-1.553750038E-2,1.784749925E-1
1.073221658E0,-1.189374998E-1,-4.111250117E-2,1.699499935E-1
1.075755198E0,-1.137124971E-1,-6.242499873E-2,1.688500047E-1
1.078288965E0,-1.072499976E-1,-8.263749629E-2,1.667875051E-1
1.080822583E0,-9.446249902E-2,-1.028499976E-1,1.625249982E-1
1.083356389E0,-7.851249725E-2,-1.199000031E-1,1.508374959E-1
1.085889929E0,-6.256250292E-2,-1.432749927E-1,1.391499937E-1
1.088423543E0,-3.492499888E-2,-1.560624987E-1,1.326874942E-1
1.090957312E0,-8.249999955E-4,-1.666499972E-1,1.209999993E-1
1.093490857E0,2.791249938E-2,-1.857624948E-1,1.018875018E-1
1.096024471E0,5.444999784E-2,-1.953874975E-1,8.167500049E-2
1.098558011E0,7.782500237E-2,-1.996500045E-1,6.036249921E-2
1.101091779E0,1.013374999E-1,-2.144999951E-1,3.588749841E-2
1.103625328E0,1.258125007E-1,-2.347124964E-1,9.212499484E-3
1.106158941E0,1.427250057E-1,-2.550624907E-1,-2.048750035E-2
1.108692711E0,1.577125043E-1,-2.773374915E-1,-4.826249927E-2
1.111226251E0,1.736624986E-1,-2.975499928E-1,-7.369999588E-2
1.113759855E0,1.907124966E-1,-3.209249973E-1,-1.003749967E-1
1.116293395E0,2.087250054E-1,-3.359124959E-1,-1.194875017E-1
1.118827239E0,2.268749923E-1,-3.379749954E-1,-1.280124933E-1
1.121360780E0,2.374625057E-1,-3.188624978E-1,-1.280124933E-1
1.123894523E0,2.385624945E-1,-3.123999834E-1,-1.237500012E-1
1.126428063E0,2.502500117E-1,-3.401750028E-1,-1.152250022E-1
1.128961677E0,2.726624906E-1,-3.496625125E-1,-1.035374999E-1
1.131495446E0,2.980999947E-1,-3.231250048E-1,-8.868750185E-2
1.134028991E0,3.290374875E-1,-3.040125072E-1,-7.906249911E-2
1.136562605E0,3.662999868E-1,-2.912249863E-1,-7.273750007E-2
1.139096145E0,3.971000016E-1,-2.741749883E-1,-6.943749636E-2
1.141629913E0,4.226749837E-1,-2.667500079E-1,-7.273750007E-2
1.144163516E0,4.408249855E-1,-2.613874972E-1,-8.222500235E-2
1.146697283E0,4.428874850E-1,-2.528625131E-1,-9.927500039E-2
1.149230824E0,4.397250116E-1,-2.475000024E-1,-1.131625026E-1
1.151764437E0,4.289999902E-1,-2.369125038E-1,-1.302125007E-1
1.154297967E0,4.163500071E-1,-2.272875011E-1,-1.428624988E-1
1.156831735E0,3.971000016E-1,-2.304500043E-1,-1.535875052E-1
1.159365352E0,3.843125105E-1,-2.400749922E-1,-1.556500047E-1
1.161898891E0,3.651999831E-1,-2.380124927E-1,-1.556500047E-1
1.164432653E0,3.418250084E-1,-2.283875048E-1,-1.567499936E-1
1.166966270E0,3.205125034E-1,-2.177999914E-1,-1.567499936E-1
1.169499809E0,2.971374989E-1,-2.124374956E-1,-1.524875015E-1
1.172033576E0,2.704625130E-1,-1.985500008E-1,-1.504250020E-1
1.174567111E0,2.428250015E-1,-1.868624985E-1,-1.504250020E-1
1.177100725E0,2.066625059E-1,-1.655499935E-1,-1.461624950E-1
1.179634494E0,1.725624949E-1,-1.443749964E-1,-1.450625062E-1
1.182168034E0,1.449249983E-1,-1.390125006E-1,-1.376374960E-1
1.184701653E0,1.247124970E-1,-1.390125006E-1,-1.259499937E-1
1.187235422E0,1.044999957E-1,-1.421750039E-1,-1.205874979E-1
1.189768963E0,8.744999766E-2,-1.453374922E-1,-1.194875017E-1
1.192302576E0,7.782500237E-2,-1.475374997E-1,-1.183874980E-1
1.194836111E0,7.466249913E-2,-1.645874977E-1,-1.226499975E-1
1.197369956E0,7.150000334E-2,-1.836999953E-1,-1.259499937E-1
1.199903496E0,6.407500058E-2,-1.996500045E-1,-1.311749965E-1
1.202437263E0,6.091250107E-2,-2.230249941E-1,-1.376374960E-1
1.204970799E0,5.981250107E-2,-2.454375029E-1,-1.493249983E-1
1.207504412E0,5.761250108E-2,-2.602874935E-1,-1.589500010E-1
1.210037953E0,5.871250108E-2,-2.784374952E-1,-1.673374921E-1
1.212571720E0,5.444999784E-2,-2.932874858E-1,-1.843875051E-1
1.215105352E0,5.555000156E-2,-2.997500002E-1,-1.971749961E-1
1.217639119E0,5.664999783E-2,-2.975499928E-1,-2.088624984E-1
1.220172660E0,6.297499686E-2,-2.932874858E-1,-2.216500044E-1
1.222706198E0,6.723749638E-2,-2.847625017E-1,-2.312749922E-1
1.225239778E0,7.259999961E-2,-2.730749846E-1,-2.333374918E-1
1.227773547E0,7.782500237E-2,-2.624875009E-1,-2.344374955E-1
1.230307164E0,8.524999768E-2,-2.486000061E-1,-2.333374918E-1
1.232840703E0,8.744999766E-2,-2.272875011E-1,-2.312749922E-1
1.235374456E0,8.951249719E-2,-2.007499933E-1,-2.270125002E-1
1.237907997E0,8.951249719E-2,-1.762750000E-1,-2.205500007E-1
1.240441610E0,9.377499670E-2,-1.623875052E-1,-2.131250054E-1
1.242975379E0,9.281250089E-2,-1.432749927E-1,-2.056999952E-1
1.245508901E0,8.951249719E-2,-1.284250021E-1,-1.960749924E-1
1.248042514E0,8.744999766E-2,-1.219625026E-1,-1.865874976E-1
1.250576055E0,8.428750187E-2,-1.060125008E-1,-1.801249981E-1
1.253109899E0,7.576250285E-2,-9.542500228E-2,-1.673374921E-1
1.255643414E0,6.503749639E-2,-9.212499857E-2,-1.652749926E-1
1.258176953E0,5.238749832E-2,-9.006249905E-2,-1.621125042E-1
1.260710720E0,3.959999979E-2,-8.786249906E-2,-1.588124931E-1
1.263244337E0,2.791249938E-2,-9.638749808E-2,-1.610125005E-1
1.265777876E0,1.512499992E-2,-9.748750180E-2,-1.556500047E-1
1.268311643E0,3.437499981E-3,-9.748750180E-2,-1.471250057E-1
1.270845260E0,-8.387500420E-3,-1.038125008E-1,-1.407999992E-1
1.273378799E0,-1.691249944E-2,-1.145374998E-1,-1.376374960E-1
1.275912552E0,-2.213750035E-2,-1.293874979E-1,-1.291124970E-1
1.278446093E0,-2.639999986E-2,-1.401125044E-1,-1.269125044E-1
1.280979706E0,-3.286249936E-2,-1.538625062E-1,-1.194875017E-1
1.283513475E0,-4.138749838E-2,-1.709125042E-1,-1.131625026E-1
1.286047112E0,-5.197500065E-2,-1.922249943E-1,-1.098624989E-1
1.288580650E0,-6.586249918E-2,-2.102375031E-1,-1.067000031E-1
1.291114417E0,-8.703749627E-2,-2.198625058E-1,-1.003749967E-1
1.293648035E0,-1.137124971E-1,-2.241249979E-1,-1.014750004E-1
1.296181554E0,-1.413500011E-1,-2.263250053E-1,-1.046374962E-1
1.298715240E0,-1.669249982E-1,-2.187625021E-1,-1.088999957E-1
1.301248901E0,-1.849374920E-1,-2.039124966E-1,-1.141249985E-1
1.303782477E0,-1.956624985E-1,-1.900250018E-1,-1.205874979E-1
1.306316244E0,-1.988250017E-1,-1.709125042E-1,-1.302125007E-1
1.308849785E0,-1.924999952E-1,-1.549624950E-1,-1.407999992E-1
1.311383398E0,-1.797125041E-1,-1.401125044E-1,-1.513874978E-1
1.313917187E0,-1.604624987E-1,-1.273249984E-1,-1.663749963E-1
1.316450727E0,-1.370874941E-1,-1.156374961E-1,-1.834249943E-1
1.318984340E0,-1.126125008E-1,-1.038125008E-1,-2.014375031E-1
1.321517881E0,-9.350000322E-2,-9.006249905E-2,-2.195875049E-1
1.324051624E0,-7.644999772E-2,-8.359999955E-2,-2.344374955E-1
1.326585242E0,-6.159999967E-2,-7.727500051E-2,-2.492875010E-1
1.329118780E0,-4.661250114E-2,-7.617499679E-2,-2.620750070E-1
1.331652547E0,-3.176249936E-2,-9.322500229E-2,-2.694999874E-1
1.334186185E0,-1.787500083E-2,-1.156374961E-1,-2.663374841E-1
1.336719952E0,-6.187499966E-3,-1.251250058E-1,-2.652375102E-1
1.339253492E0,7.562499959E-3,-1.273249984E-1,-2.620750070E-1
1.341787106E0,2.254999988E-2,-1.304875016E-1,-2.535499930E-1
1.344320675E0,3.739999980E-2,-1.379124969E-1,-2.461249977E-1
1.346854442E0,5.018749833E-2,-1.347499937E-1,-2.344374955E-1
1.349388060E0,6.407500058E-2,-1.241625026E-1,-2.238499969E-1
1.351921598E0,7.782500237E-2,-1.145374998E-1,-2.153249979E-1
1.354455370E0,8.635000139E-2,-1.017500013E-1,-2.088624984E-1
1.356988911E0,9.377499670E-2,-9.006249905E-2,-2.046000063E-1
1.359522524E0,1.002374962E-1,-7.727500051E-2,-1.971749961E-1
1.362056294E0,9.913749993E-2,-7.095000148E-2,-1.897500008E-1
1.364589934E0,9.377499670E-2,-6.558749825E-2,-1.854874939E-1
1.367123472E0,8.428750187E-2,-5.912499875E-2,-1.801249981E-1
1.369657240E0,6.929999590E-2,-5.389999971E-2,-1.727000028E-1
1.372190780E0,4.702499881E-2,-5.073750019E-2,-1.673374921E-1
1.374724385E0,1.512499992E-2,-4.001250118E-2,-1.610125005E-1
1.377258154E0,-1.897500083E-2,-3.038750030E-2,-1.546874940E-1
1.379791694E0,-5.307500064E-2,-1.773750037E-2,-1.450625062E-1
1.382325308E0,-7.644999772E-2,-2.749999985E-3,-1.343374997E-1
1.384858839E0,-9.239999950E-2,1.429999992E-2,-1.269125044E-1
1.387392606E0,-1.051874980E-1,2.062499896E-2,-1.141249985E-1
1.389926224E0,-1.072499976E-1,2.804999985E-2,-1.014750004E-1
1.392459762E0,-1.029874980E-1,3.341250122E-2,-9.075000137E-2
1.394993566E0,-9.982500225E-2,3.231250122E-2,-8.442500234E-2
1.397527107E0,-8.607500046E-2,3.451250121E-2,-7.699999958E-2
1.400060720E0,-7.328750193E-2,2.694999985E-2,-7.163749635E-2
1.402594490E0,-6.256250292E-2,2.062499896E-2,-7.163749635E-2
1.405128098E0,-5.307500064E-2,1.856249943E-2,-7.273750007E-2
1.407661636E0,-4.344999790E-2,1.636249945E-2,-7.369999588E-2
1.410195404E0,-3.382499889E-2,1.099999994E-2,-7.590000331E-2
1.412728944E0,-2.213750035E-2,1.209999993E-2,-8.016250283E-2
1.415262557E0,-9.349999949E-3,1.099999994E-2,-8.332499862E-2
1.417796327E0,7.562499959E-3,-5.912499968E-3,-8.442500234E-2
1.420329944E0,2.571249940E-2,-3.684999794E-2,-8.126249909E-2
1.422863483E0,4.482499883E-2,-7.521250099E-2,-7.699999958E-2
1.425397274E0,6.407500058E-2,-1.006499976E-1,-7.906249911E-2
1.427930891E0,8.208750188E-2,-1.176999956E-1,-8.442500234E-2
1.430464430E0,1.033999994E-1,-1.187999994E-1,-8.648750186E-2
1.432998197E0,1.193500012E-1,-1.187999994E-1,-9.817499667E-2
1.435531722E0,1.395625025E-1,-1.507000029E-1,-1.088999957E-1
1.438065336E0,1.502874941E-1,-1.922249943E-1,-1.057374999E-1
1.440599105E0,1.545500010E-1,-2.209624946E-1,-1.035374999E-1
1.443132645E0,1.502874941E-1,-2.400749922E-1,-1.120624989E-1
1.445666278E0,1.427250057E-1,-2.486000061E-1,-1.226499975E-1
1.448199818E0,1.310375035E-1,-2.496999949E-1,-1.343374997E-1
1.450733586E0,1.161874980E-1,-2.347124964E-1,-1.450625062E-1
1.453267203E0,9.913749993E-2,-2.135374993E-1,-1.546874940E-1
1.455800746E0,7.466249913E-2,-1.751749963E-1,-1.599124968E-1
1.458334514E0,4.812499881E-2,-1.293874979E-1,-1.652749926E-1
1.460868131E0,1.938750036E-2,-8.689999580E-2,-1.748999953E-1
1.463401670E0,-1.581249945E-2,-6.448750198E-2,-1.780624986E-1
1.465935447E0,-5.623750016E-2,-4.427500069E-2,-1.791625023E-1
1.468468987E0,-1.009249985E-1,-3.038750030E-2,-1.823250055E-1
1.471002601E0,-1.456124932E-1,-2.722499892E-2,-1.929125041E-1
1.473536370E0,-1.913999915E-1,-2.406249940E-2,-2.056999952E-1
1.476069963E0,-2.329249978E-1,-2.296249941E-2,-2.205500007E-1
1.478603502E0,-2.605625093E-1,-3.684999794E-2,-2.355374992E-1
1.481137269E0,-2.785750031E-1,-6.668750197E-2,-2.483250052E-1
1.483670886E0,-2.861374915E-1,-9.542500228E-2,-2.631750107E-1
1.486204425E0,-2.839374840E-1,-1.315875053E-1,-2.727999985E-1
1.488738192E0,-2.733500004E-1,-1.836999953E-1,-2.802250087E-1
1.491271733E0,-2.540999949E-1,-2.508000135E-1,-2.844874859E-1
1.493805346E0,-2.286625057E-1,-3.166624904E-1,-2.908124924E-1
1.496338866E0,-2.019875050E-1,-3.837625086E-1,-2.982375026E-1
1.498872634E0,-1.754499972E-1,-4.475624859E-1,-3.015374839E-1
1.501406251E0,-1.467124969E-1,-5.018749833E-1,-3.089624941E-1
1.503939789E0,-1.179749966E-1,-5.380374789E-1,-3.152875006E-1
1.506473533E0,-8.923749626E-2,-5.647125244E-1,-3.195500076E-1
1.509007150E0,-6.256250292E-2,-5.817624927E-1,-3.260124922E-1
1.511540689E0,-3.492499888E-2,-5.827249885E-1,-3.269749880E-1
1.514074456E0,-9.349999949E-3,-5.741999745E-1,-3.280749917E-1
1.516608073E0,1.402499992E-2,-5.625125170E-1,-3.269749880E-1
1.519141612E0,3.739999980E-2,-5.530250072E-1,-3.206500113E-1
1.521675379E0,5.871250108E-2,-5.391374826E-1,-3.132250011E-1
1.524208919E0,7.356250286E-2,-5.285499692E-1,-3.078624904E-1
1.526742533E0,8.318749815E-2,-5.178250074E-1,-2.961750031E-1
1.529276302E0,8.951249719E-2,-5.029749870E-1,-2.897124887E-1
1.531809842E0,9.281250089E-2,-4.890874922E-1,-2.759625018E-1
1.534343456E0,8.744999766E-2,-4.774000049E-1,-2.652375102E-1
1.536877249E0,8.428750187E-2,-4.657124877E-1,-2.525874972E-1
1.539410790E0,7.039999962E-2,-4.551250041E-1,-2.364999950E-1
1.541944403E0,5.238749832E-2,-4.444000125E-1,-2.173874974E-1
1.544478172E0,3.533750027E-2,-4.369750023E-1,-2.003374994E-1
1.547011718E0,1.402499992E-2,-4.230875075E-1,-1.843875051E-1
1.549545331E0,-6.187499966E-3,-3.954499960E-1,-1.737999916E-1
1.552078872E0,-3.066249937E-2,-3.698749840E-1,-1.715999991E-1
1.554612639E0,-5.087500066E-2,-3.529624939E-1,-1.706375033E-1
1.557146232E0,-7.108750194E-2,-3.411374986E-1,-1.684374958E-1
1.559679999E0,-9.350000322E-2,-3.305499852E-1,-1.706375033E-1
1.562213540E0,-1.105500013E-1,-2.804999948E-1,-1.801249981E-1
1.564747153E0,-1.168750003E-1,-2.209624946E-1,-1.908500046E-1
1.567280946E0,-1.179749966E-1,-1.751749963E-1,-2.003374994E-1
1.569814487E0,-1.148125008E-1,-1.219625026E-1,-2.173874974E-1
1.572348100E0,-1.083500013E-1,-8.263749629E-2,-2.290749997E-1
1.574881641E0,-9.982500225E-2,-9.748750180E-2,-2.450249940E-1
1.577415398E0,-9.459999949E-2,-1.134374961E-1,-2.568500042E-1
1.579948938E0,-8.181250095E-2,-1.187999994E-1,-2.611125112E-1
1.582482783E0,-6.682500243E-2,-1.570249945E-1,-2.620750070E-1
1.585016323E0,-5.513750017E-2,-2.155999988E-1,-2.716999948E-1
1.587549944E0,-4.344999790E-2,-2.667500079E-1,-2.727999985E-1
1.590083482E0,-2.956249937E-2,-3.209249973E-1,-2.685374916E-1
1.592617249E0,-1.361249946E-2,-3.954499960E-1,-2.674374878E-1
1.595150867E0,1.374999993E-4,-4.720374942E-1,-2.759625018E-1
1.597684391E0,1.292499993E-2,-5.242875218E-1,-2.802250087E-1
1.600218158E0,2.364999987E-2,-5.689749718E-1,-2.780250013E-1
1.602751699E0,3.629999980E-2,-6.190249920E-1,-2.770625055E-1
1.605285312E0,4.702499881E-2,-6.561499834E-1,-2.833875120E-1
1.607819071E0,5.444999784E-2,-6.806250215E-1,-2.855874896E-1
1.610352612E0,6.503749639E-2,-7.008374929E-1,-2.780250013E-1
1.612886225E0,7.356250286E-2,-7.169250250E-1,-2.822875082E-1
1.615419995E0,7.782500237E-2,-7.093625069E-1,-2.876499891E-1
1.617953535E0,7.892499864E-2,-7.019374967E-1,-2.897124887E-1
1.620487073E0,8.428750187E-2,-6.998749971E-1,-2.939749956E-1
1.623020918E0,9.281250089E-2,-6.848874688E-1,-2.770625055E-1
1.625554458E0,1.023000032E-1,-6.743000150E-1,-2.535499930E-1
1.628088097E0,1.172875017E-1,-6.689375043E-1,-2.525874972E-1
1.630621636E0,1.278750002E-1,-6.316750050E-1,-2.492875010E-1
1.633155403E0,1.352999955E-1,-5.955125093E-1,-2.387000024E-1
1.635688944E0,1.427250057E-1,-5.784624815E-1,-2.312749922E-1
1.638222576E0,1.523499936E-1,-5.678749681E-1,-2.216500044E-1
1.640756345E0,1.608749926E-1,-5.784624815E-1,-2.099625021E-1
1.643289963E0,1.629374921E-1,-6.370375156E-1,-2.025374919E-1
1.645823501E0,1.597750038E-1,-6.839249730E-1,-1.908500046E-1
1.648357273E0,1.545500010E-1,-7.084000111E-1,-1.695374995E-1
1.650890891E0,1.608749926E-1,-7.243499756E-1,-1.471250057E-1
1.653424429E0,1.779250056E-1,-7.338374853E-1,-1.365374923E-1
1.655958196E0,1.981374919E-1,-7.200874686E-1,-1.269125044E-1
1.658491756E0,2.161500007E-1,-7.147250175E-1,-1.291124970E-1
1.661025369E0,2.300374955E-1,-7.147250175E-1,-1.280124933E-1
1.663559139E0,2.448875010E-1,-7.136250138E-1,-1.141249985E-1
1.666092679E0,2.715624869E-1,-7.349374890E-1,-8.222500235E-2
1.668626316E0,3.023625016E-1,-7.732999921E-1,-5.348749831E-2
1.671159857E0,3.290374875E-1,-7.477250099E-1,-3.011249937E-2
1.673693624E0,3.470500112E-1,-6.817250252E-1,-5.637499969E-3
1.676227241E0,3.672625124E-1,-6.349750161E-1,1.251249947E-2
1.678760985E0,3.907749951E-1,-5.986750126E-1,4.647500068E-2
1.681294525E0,4.152500033E-1,-5.413374901E-1,7.947500050E-2
1.683828139E0,4.311999977E-1,-4.805625081E-1,9.762500226E-2
1.686361679E0,4.460499883E-1,-4.306499958E-1,1.146750003E-1
1.688895412E0,4.545750022E-1,-3.806000054E-1,1.306249946E-1
1.691429030E0,4.588375092E-1,-3.401750028E-1,1.443749964E-1
1.693962568E0,4.567750096E-1,-3.294500113E-1,1.476749927E-1
1.696496335E0,4.567750096E-1,-3.262875080E-1,1.423124969E-1
1.699029944E0,4.503124952E-1,-3.188624978E-1,1.380500048E-1
1.701563711E0,4.449499846E-1,-3.156999946E-1,1.391499937E-1
1.704097251E0,4.428874850E-1,-3.231250048E-1,1.306249946E-1
1.706630865E0,4.375250041E-1,-3.305499852E-1,1.263625026E-1
1.709164382E0,4.386250079E-1,-3.390749991E-1,1.241625026E-1
1.711698150E0,4.439874887E-1,-3.592875004E-1,1.113749966E-1
1.714231690E0,4.471499920E-1,-4.008125067E-1,1.028499976E-1
1.716765303E0,4.471499920E-1,-4.358749986E-1,1.039500013E-1
1.719299101E0,4.482499957E-1,-4.475624859E-1,1.124750003E-1
1.721832718E0,4.492124915E-1,-4.465999901E-1,1.263625026E-1
1.724366257E0,4.545750022E-1,-4.358749986E-1,1.348875016E-1
1.726899795E0,4.630999863E-1,-4.199250042E-1,1.369500011E-1
1.729433596E0,4.662624896E-1,-4.369750023E-1,1.423124969E-1
1.731967137E0,4.652999938E-1,-4.560874999E-1,1.497374922E-1
1.734500904E0,4.610374868E-1,-4.742375016E-1,1.528999954E-1
1.737034444E0,4.599374831E-1,-4.890874922E-1,1.551000029E-1
1.739568053E0,4.545750022E-1,-5.007749796E-1,1.625249982E-1
1.742101593E0,4.354625046E-1,-4.965125024E-1,1.656875014E-1
1.744635360E0,4.120875001E-1,-4.816625118E-1,1.656875014E-1
1.747168978E0,3.854124844E-1,-4.625499845E-1,1.688500047E-1
1.749702488E0,3.546124995E-1,-4.327124953E-1,1.656875014E-1
1.752236256E0,3.216125071E-1,-3.900874853E-1,1.571625024E-1
1.754769873E0,2.832500041E-1,-3.496625125E-1,1.412124932E-1
1.757303640E0,2.448875010E-1,-3.199625015E-1,1.241625026E-1
1.759837161E0,2.140875012E-1,-2.912249863E-1,1.071124971E-1
1.762370774E0,1.821874976E-1,-2.677125037E-1,8.593750000E-2
1.764904314E0,1.619749963E-1,-2.517625093E-1,6.778749824E-2
1.767438082E0,1.406625062E-1,-2.369125038E-1,5.293750018E-2
1.769971714E0,1.267749965E-1,-2.315499932E-1,3.698749840E-2
1.772505253E0,1.172875017E-1,-2.263250053E-1,2.199999988E-2
1.775039020E0,1.044999957E-1,-2.315499932E-1,8.249999955E-3
1.777572560E0,9.597499669E-2,-2.443374991E-1,-8.799999952E-3
1.780106193E0,8.744999766E-2,-2.539624870E-1,-1.622499898E-2
1.782639962E0,7.782500237E-2,-2.656500041E-1,-2.268750034E-2
1.785173579E0,7.150000334E-2,-2.773374915E-1,-2.901249938E-2
1.787707118E0,6.503749639E-2,-2.943874896E-1,-3.643750027E-2
1.790240871E0,7.259999961E-2,-3.156999946E-1,-3.753750026E-2
1.792774411E0,8.524999768E-2,-3.433375061E-1,-3.863750026E-2
1.795308025E0,1.013374999E-1,-3.709749877E-1,-3.217500076E-2
1.797841794E0,1.267749965E-1,-3.954499960E-1,-2.048750035E-2
1.800375368E0,1.460250020E-1,-4.156624973E-1,-5.637499969E-3
1.802908981E0,1.619749963E-1,-4.178625047E-1,1.567500085E-2
1.805442750E0,1.768250018E-1,-4.008125067E-1,3.698749840E-2
1.807976291E0,1.821874976E-1,-3.678124845E-1,6.352499872E-2
1.810509914E0,1.874125004E-1,-3.242250085E-1,9.336250275E-2
1.813043455E0,1.810874939E-1,-2.838000059E-1,1.209999993E-1
1.815577222E0,1.662375033E-1,-2.475000024E-1,1.476749927E-1
1.818110839E0,1.502874941E-1,-2.061125040E-1,1.678874940E-1
1.820644392E0,1.352999955E-1,-1.623875052E-1,1.827374995E-1
1.823178159E0,1.215500012E-1,-1.273249984E-1,2.008875012E-1
1.825711776E0,1.204499975E-1,-1.039500013E-1,2.092749923E-1
1.828245315E0,1.321374923E-1,-8.579999954E-2,2.168374956E-1
1.830779039E0,1.469874978E-1,-6.984999776E-2,2.242625058E-1
1.833312579E0,1.704999954E-1,-5.706249923E-2,2.296250015E-1
1.835846424E0,1.842499971E-1,-4.111250117E-2,2.391124964E-1
1.838379964E0,1.853500009E-1,-3.368749842E-2,2.529999912E-1
1.840913589E0,1.831499934E-1,-2.089999989E-2,2.667500079E-1
1.843447128E0,1.842499971E-1,-8.112499490E-3,2.795374990E-1
1.845980895E0,1.916749924E-1,1.003750041E-2,2.965874970E-1
1.848514436E0,2.035000026E-1,1.856249943E-2,3.221625090E-1
1.851048068E0,2.194499969E-1,3.024999984E-2,3.455374837E-1
1.853581837E0,2.353999913E-1,3.547500074E-2,3.657499850E-1
1.856115455E0,2.513499856E-1,3.973750025E-2,3.817000091E-1
1.858648993E0,2.619374990E-1,4.399999976E-2,4.009499848E-1
1.861182527E0,2.693625093E-1,3.973750025E-2,4.232249856E-1
1.863716294E0,2.821500003E-1,3.973750025E-2,4.487999976E-1
1.866249911E0,2.886124849E-1,2.378750034E-2,4.732750058E-1
1.868783678E0,2.875125110E-1,1.319999993E-2,4.923875034E-1
1.871317243E0,2.886124849E-1,1.099999994E-2,5.126000047E-1
1.873850856E0,2.906749845E-1,1.429999992E-2,5.296499729E-1
1.876384626E0,2.917749882E-1,1.209999993E-2,5.498625040E-1
1.878918166E0,2.906749845E-1,7.837500423E-3,5.732374787E-1
1.881451769E0,2.960374951E-1,1.429999992E-2,5.977125168E-1
1.883985310E0,3.023625016E-1,1.746249944E-2,6.221874952E-1
1.886519077E0,3.183124959E-1,1.952499896E-2,6.445999742E-1
1.889052694E0,3.247750103E-1,2.694999985E-2,6.627500057E-1
1.891586486E0,3.194124997E-1,3.231250122E-2,6.776000261E-1
1.894120026E0,2.971374989E-1,3.451250121E-2,6.881874800E-1
1.896653640E0,2.704625130E-1,3.547500074E-2,6.989125013E-1
1.899187180E0,2.448875010E-1,4.303750023E-2,6.967124939E-1
1.901720966E0,2.215124965E-1,5.678749830E-2,6.914874911E-1
1.904254584E0,2.098249942E-1,7.273750007E-2,6.733375192E-1
1.906788122E0,2.098249942E-1,7.699999958E-2,6.499624848E-1
1.909321889E0,2.204124928E-1,7.067500055E-2,6.221874952E-1
1.911855440E0,2.534124851E-1,8.016250283E-2,5.967500210E-1
1.914389053E0,2.769249976E-1,8.346249908E-2,5.722749829E-1
1.916922822E0,2.875125110E-1,6.957499683E-2,5.444999933E-1
1.919456363E0,3.034625053E-1,7.493750006E-2,5.179625154E-1
1.921990029E0,3.119874895E-1,7.809999585E-2,4.838624895E-1
1.924523799E0,3.205125034E-1,8.236250281E-2,4.445374906E-1
1.927057339E0,3.194124997E-1,8.552499861E-2,3.944875002E-1
1.929590952E0,3.099249899E-1,9.624999762E-2,3.444375098E-1
1.932124703E0,3.077250123E-1,1.142624989E-1,2.934249938E-1
1.934658243E0,3.023625016E-1,1.483625025E-1,2.433750033E-1
1.937191857E0,2.895750105E-1,1.908500046E-1,1.870000064E-1
1.939725397E0,2.769249976E-1,2.505249977E-1,1.306249946E-1
1.942259135E0,2.619374990E-1,3.111625016E-1,7.315000147E-2
1.944792753E0,2.353999913E-1,3.601124883E-1,4.949999973E-3
1.947326291E0,2.087250054E-1,4.153875113E-1,-5.995000154E-2
1.949860058E0,1.821874976E-1,4.665375054E-1,-1.280124933E-1
1.952393671E0,1.427250057E-1,5.058624744E-1,-2.270125002E-1
1.954927438E0,1.087625027E-1,5.303375125E-1,-3.057999909E-1
1.957460978E0,7.150000334E-2,5.016000271E-1,-3.631374836E-1
1.959994592E0,4.592499882E-2,4.782249928E-1,-4.068624973E-1
1.962528117E0,3.739999980E-2,4.707999825E-1,-4.589749873E-1
1.965061884E0,2.887500077E-2,4.728625119E-1,-5.281375051E-1
1.967595425E0,2.681249939E-2,4.676375091E-1,-5.355625153E-1
1.970129038E0,4.908749834E-2,4.867500067E-1,-4.706625044E-1
1.972662799E0,5.761250108E-2,4.910124838E-1,-4.131875038E-1
1.975196416E0,4.386249930E-2,4.782249928E-1,-3.866499960E-1
1.977729954E0,4.166249931E-2,4.622749984E-1,-3.792249858E-1
1.980263722E0,3.533750027E-2,4.761624932E-1,-3.781250119E-1
1.982797329E0,2.887500077E-2,5.016000271E-1,-3.792249858E-1
1.985330868E0,1.718750037E-2,5.368000269E-1,-3.770250082E-1
1.987864635E0,8.662499487E-3,5.920749903E-1,-3.759250045E-1
1.990398175E0,-1.581249945E-2,6.335999966E-1,-3.749625087E-1
1.992931794E0,-4.138749838E-2,6.719624996E-1,-3.579125106E-1
1.995465563E0,-6.682500243E-2,7.123875022E-1,-3.238124847E-1
1.997999103E0,-1.168750003E-1,7.218750119E-1,-2.982375026E-1
2.000532717E0,-1.572999954E-1,7.027624846E-1,-2.694999874E-1
2.003066247E0,-1.647250056E-1,6.549124718E-1,-2.483250052E-1
2.005600014E0,-1.392875016E-1,5.857499838E-1,-2.333374918E-1
2.008133632E0,-9.666249901E-2,4.846875072E-1,-2.205500007E-1
2.010667399E0,-3.492499888E-2,3.579125106E-1,-2.142249942E-1
2.013200945E0,1.512499992E-2,2.004749924E-1,-2.077624947E-1
2.015734558E0,6.297499686E-2,2.694999985E-2,-1.993750036E-1
2.018268098E0,8.951249719E-2,-1.443749964E-1,-1.684374958E-1
2.020801866E0,9.597499669E-2,-2.667500079E-1,-1.109625027E-1
2.023335502E0,6.503749639E-2,-3.103374839E-1,-4.716249928E-2
2.025869269E0,6.599999964E-3,-3.007124960E-1,1.883750036E-2
2.028402810E0,-4.344999790E-2,-2.593249977E-1,7.521250099E-2
2.030936348E0,-6.792499870E-2,-2.007499933E-1,1.189374998E-1
2.033469962E0,-7.851249725E-2,-1.230624989E-1,1.434125006E-1
2.036003731E0,-8.497499675E-2,-3.684999794E-2,1.348875016E-1
2.038537348E0,-8.497499675E-2,4.399999976E-2,1.028499976E-1
2.041070887E0,-9.776250273E-2,1.121999994E-1,5.293750018E-2
2.043604644E0,-1.190750003E-1,1.717374921E-1,1.787499990E-3
2.046138184E0,-1.487749964E-1,2.217874974E-1,-3.643750027E-2
2.048671798E0,-1.786125004E-1,2.568500042E-1,-5.995000154E-2
2.051205567E0,-2.041874975E-1,2.803624868E-1,-6.091250107E-2
2.053739117E0,-2.190375030E-1,2.877874970E-1,-5.664999783E-2
2.056272731E0,-2.179374993E-1,2.761000097E-1,-4.289999977E-2
2.058806500E0,-2.051499933E-1,2.505249977E-1,-2.268750034E-2
2.061340041E0,-1.849374920E-1,2.026749998E-1,-5.637499969E-3
2.063873640E0,-1.509750038E-1,1.461624950E-1,1.141249947E-2
2.066407409E0,-1.168750003E-1,8.016250283E-2,2.942499891E-2
2.068940950E0,-7.755000144E-2,-6.874999963E-4,4.647500068E-2
2.071474563E0,-3.808749840E-2,-8.153750002E-2,6.242499873E-2
2.074008113E0,-3.024999984E-3,-1.612875015E-1,8.689999580E-2
2.076541880E0,2.887500077E-2,-2.369125038E-1,1.167374998E-1
2.079075497E0,5.128749833E-2,-3.071750104E-1,1.337874979E-1
2.081609036E0,7.039999962E-2,-3.603875041E-1,1.423124969E-1
2.084142774E0,9.487500042E-2,-3.922874928E-1,1.582625061E-1
2.086676314E0,1.193500012E-1,-4.113999903E-1,1.742125005E-1
2.089209928E0,1.460250020E-1,-4.178625047E-1,1.838375032E-1
2.091743697E0,1.725624949E-1,-4.156624973E-1,1.912624985E-1
2.094277334E0,1.959374994E-1,-3.976500034E-1,1.955250055E-1
2.096810873E0,2.140875012E-1,-3.698749840E-1,1.944250017E-1
2.099344640E0,2.257750034E-1,-3.348124921E-1,1.944250017E-1
2.101878181E0,2.237125039E-1,-2.912249863E-1,1.912624985E-1
2.104411803E0,2.109249979E-1,-2.432374954E-1,1.859000027E-1
2.106945572E0,1.916749924E-1,-1.942874938E-1,1.816374958E-1
2.109479113E0,1.704999954E-1,-1.421750039E-1,1.795749962E-1
2.112012726E0,1.406625062E-1,-8.896250278E-2,1.721500009E-1
2.114546505E0,1.161874980E-1,-2.516249940E-2,1.614249945E-1
2.117080046E0,9.377499670E-2,2.694999985E-2,1.465750039E-1
2.119613659E0,7.466249913E-2,5.568749830E-2,1.273249984E-1
2.122147428E0,5.555000156E-2,6.957499683E-2,1.135749966E-1
2.124680983E0,3.629999980E-2,6.215000153E-2,1.071124971E-1
2.127214596E0,1.718750037E-2,4.509999976E-2,1.028499976E-1
2.129748137E0,-8.249999955E-4,1.952499896E-2,1.007874981E-1
2.132281904E0,-1.471249945E-2,-9.212499484E-3,1.018875018E-1
2.134815507E0,-2.323750034E-2,-4.221250117E-2,1.273249984E-1
2.137349046E0,-8.249999955E-4,-8.470000327E-2,2.072124928E-1
2.139882813E0,1.086249948E-2,-1.900250018E-1,2.498375028E-1
2.142416353E0,1.292499993E-2,-2.380124927E-1,2.433750033E-1
2.144950182E0,4.482499883E-2,-2.113374919E-1,2.231625021E-1
2.147483722E0,5.018749833E-2,-3.018124998E-1,2.380124927E-1
2.150017337E0,3.959999979E-2,-3.741374910E-1,2.487374991E-1
2.152550876E0,4.166249931E-2,-3.826625049E-1,2.498375028E-1
2.155084643E0,3.739999980E-2,-4.147000015E-1,2.476374954E-1
2.157618261E0,3.629999980E-2,-4.540250003E-1,2.508000135E-1
2.160151799E0,3.629999980E-2,-4.710749984E-1,2.498375028E-1
2.162685566E0,3.313750029E-2,-4.796000123E-1,2.370499969E-1
2.165219131E0,2.461249940E-2,-4.720374942E-1,2.220624983E-1
2.167752744E0,1.938750036E-2,-4.603500068E-1,2.135374993E-1
2.170286513E0,1.182499994E-2,-4.401375055E-1,2.018499970E-1
2.172820131E0,5.499999970E-3,-4.124999940E-1,1.912624985E-1
2.175353664E0,-4.124999978E-3,-4.008125067E-1,1.742125005E-1
2.177887431E0,-7.287499961E-3,-3.848625124E-1,1.625249982E-1
2.180420972E0,-1.581249945E-2,-3.698749840E-1,1.528999954E-1
2.182954585E0,-2.323750034E-2,-3.646500111E-1,1.465750039E-1
2.185488356E0,-2.529999986E-2,-3.518624902E-1,1.369500011E-1
2.188021896E0,-2.529999986E-2,-3.603875041E-1,1.209999993E-1
2.190555509E0,-1.044999994E-2,-3.698749840E-1,1.082125008E-1
2.193089050E0,-6.187499966E-3,-3.656125069E-1,1.050499976E-1
2.195622802E0,-6.187499966E-3,-3.603875041E-1,7.521250099E-2
2.198156420E0,-7.287499961E-3,-3.486999869E-1,4.221250117E-2
2.200689958E0,-1.264999993E-2,-3.539249897E-1,4.949999973E-3
2.203223725E0,-2.213750035E-2,-3.603875041E-1,-2.901249938E-2
2.205757295E0,-4.028749838E-2,-3.581874967E-1,-5.775000155E-2
2.208290908E0,-5.939999968E-2,-3.529624939E-1,-8.758749813E-2
2.210824677E0,-7.328750193E-2,-3.603875041E-1,-1.024374962E-1
2.213358295E0,-8.387500048E-2,-3.698749840E-1,-1.109625027E-1
2.215891828E0,-9.459999949E-2,-3.731749952E-1,-1.174250022E-1
2.218425595E0,-9.556250274E-2,-3.624500036E-1,-1.248499975E-1
2.220959136E0,-9.556250274E-2,-3.656125069E-1,-1.311749965E-1
2.223492749E0,-9.666249901E-2,-3.698749840E-1,-1.439625025E-1
2.226026290E0,-1.009249985E-1,-3.581874967E-1,-1.588124931E-1
2.228560134E0,-1.009249985E-1,-3.359124959E-1,-1.737999916E-1
2.231093674E0,-1.072499976E-1,-3.092375100E-1,-1.908500046E-1
2.233627442E0,-1.222374961E-1,-2.730749846E-1,-2.099625021E-1
2.236160972E0,-1.456124932E-1,-2.294874936E-1,-2.248124927E-1
2.238694585E0,-1.669249982E-1,-1.805374920E-1,-2.407625020E-1
2.241228355E0,-1.849374920E-1,-1.156374961E-1,-2.600125074E-1
2.243761895E0,-2.019875050E-1,-5.706249923E-2,-2.865499854E-1
2.246295524E0,-2.127124965E-1,3.574999981E-3,-3.046999872E-1
2.248829293E0,-2.190375030E-1,5.678749830E-2,-3.174875081E-1
2.251362833E0,-2.296250015E-1,1.046374962E-1,-3.377000093E-1
2.253896447E0,-2.403499931E-1,1.472624987E-1,-3.568125069E-1
2.256429968E0,-2.542375028E-1,1.984124929E-1,-3.727625012E-1
2.258963735E0,-2.701874971E-1,2.525874972E-1,-3.812874854E-1
2.261497353E0,-2.839374840E-1,3.089624941E-1,-3.887124956E-1
2.264031120E0,-2.967250049E-1,3.643749952E-1,-4.057624936E-1
2.266564664E0,-3.084124923E-1,4.079625010E-1,-4.153875113E-1
2.269098278E0,-3.243624866E-1,4.548499882E-1,-4.281750023E-1
2.271631818E0,-3.308250010E-1,5.069624782E-1,-4.387624860E-1
2.274165586E0,-3.297249973E-1,5.570124984E-1,-4.376625121E-1
2.276699093E0,-3.243624866E-1,5.909749866E-1,-4.334000051E-1
2.279232706E0,-3.233999908E-1,6.080250144E-1,-4.345000088E-1
2.281766476E0,-3.276624978E-1,6.304374933E-1,-4.569124877E-1
2.284300093E0,-3.445749879E-1,6.686624885E-1,-4.643374979E-1
2.286833611E0,-3.755125105E-1,7.070249915E-1,-4.558124840E-1
2.289367379E0,-3.977875113E-1,7.453874946E-1,-4.578749835E-1
2.291900996E0,-4.179999828E-1,7.496500015E-1,-4.547125101E-1
2.294434535E0,-4.350500107E-1,7.474499941E-1,-4.472874999E-1
2.296968336E0,-4.467374980E-1,7.303999662E-1,-4.313375056E-1
2.299501943E0,-4.531999826E-1,6.899750233E-1,-4.036999941E-1
2.302035572E0,-4.574624896E-1,6.432250142E-1,-3.695999980E-1
2.304569030E0,-4.500375092E-1,5.900124907E-1,-3.355000019E-1
2.307102874E0,-4.404124916E-1,5.208500028E-1,-2.930124998E-1
2.309636415E0,-4.361499846E-1,4.431625009E-1,-2.503874898E-1
2.312169953E0,-4.307875037E-1,3.782624900E-1,-2.099625021E-1
2.314703715E0,-4.307875037E-1,3.122625053E-1,-1.780624986E-1
2.317237333E0,-4.307875037E-1,2.505249977E-1,-1.461624950E-1
2.319771100E0,-4.244624972E-1,1.951124966E-1,-1.131625026E-1
2.322304641E0,-4.179999828E-1,1.557874978E-1,-8.648750186E-2
2.324838269E0,-4.074124992E-1,1.207249984E-1,-5.032499880E-2
2.327371809E0,-3.925625086E-1,8.552499861E-2,-1.952499896E-2
2.329905577E0,-3.701499999E-1,6.641250104E-2,8.249999955E-3
2.332439117E0,-3.445749879E-1,6.751249731E-2,3.368749842E-2
2.334972731E0,-3.243624866E-1,7.699999958E-2,5.719999969E-2
2.337506500E0,-3.041499853E-1,9.941250086E-2,7.741250098E-2
2.340040040E0,-2.861374915E-1,1.238875017E-1,9.762500226E-2
2.342573654E0,-2.648249865E-1,1.568875015E-1,1.199000031E-1
2.345107413E0,-2.488749921E-1,1.930499971E-1,1.358499974E-1
2.347641030E0,-2.190375030E-1,2.292124927E-1,1.582625061E-1
2.350174569E0,-1.860374957E-1,2.633124888E-1,1.710499972E-1
2.352708336E0,-1.487749964E-1,2.941125035E-1,1.816374958E-1
2.355241871E0,-1.148125008E-1,3.228499889E-1,1.923625022E-1
2.357775485E0,-8.497499675E-2,3.547500074E-1,1.986874938E-1
2.360309254E0,-6.792499870E-2,3.899500072E-1,2.029500008E-1
2.362842795E0,-6.049999967E-2,4.346374869E-1,2.050125003E-1
2.365376422E0,-5.829999968E-2,4.782249928E-1,2.040500045E-1
2.367910191E0,-5.197500065E-2,5.208500028E-1,1.997874975E-1
2.370443732E0,-4.564999789E-2,5.718625188E-1,1.933249980E-1
2.372977345E0,-4.455000162E-2,6.293374896E-1,1.901624948E-1
2.375511095E0,-4.771250114E-2,6.814500093E-1,1.901624948E-1
2.378044636E0,-4.977500066E-2,7.346624732E-1,1.997874975E-1
2.380578249E0,-5.087500066E-2,7.975000143E-1,2.168374956E-1
2.383111790E0,-5.623750016E-2,8.666625023E-1,2.359499931E-1
2.385645576E0,-6.256250292E-2,9.465500116E-1,2.561624944E-1
2.388179193E0,-6.586249918E-2,1.051874995E0,2.817375064E-1
2.390712960E0,-7.328750193E-2,1.100824952E0,3.190000057E-1
2.393246501E0,-9.239999950E-2,1.127362490E0,3.529624939E-1
2.395780114E0,-1.126125008E-1,1.192262530E0,3.859624863E-1
2.398313655E0,-1.359875053E-1,1.257300019E0,4.094749987E-1
2.400847422E0,-1.478125006E-1,1.312574983E0,4.285874963E-1
2.403381039E0,-1.561999917E-1,1.358362436E0,4.445374906E-1
2.405914598E0,-1.754499972E-1,1.399887443E0,4.593875110E-1
2.408448365E0,-1.913999915E-1,1.429587483E0,4.710749984E-1
2.410981906E0,-1.913999915E-1,1.448837519E0,4.838624895E-1
2.413515519E0,-1.891999990E-1,1.454062462E0,4.753375053E-1
2.416049283E0,-1.882375032E-1,1.461624980E0,4.413749874E-1
2.418582824E0,-1.891999990E-1,1.470012546E0,3.944875002E-1
2.421116437E0,-1.860374957E-1,1.478537440E0,3.562625051E-1
2.423649978E0,-1.839749962E-1,1.473312497E0,3.008500040E-1
2.426183822E0,-1.828749925E-1,1.440312505E0,2.380124927E-1
2.428717362E0,-1.786125004E-1,1.390262485E0,2.008875012E-1
2.431251129E0,-1.860374957E-1,1.343374968E0,1.699499935E-1
2.433784670E0,-2.169750035E-1,1.333887458E0,1.252624989E-1
2.436318283E0,-2.466749996E-1,1.347637534E0,1.028499976E-1
2.438851824E0,-2.583625019E-1,1.363724947E0,9.652499855E-2
2.441385668E0,-2.583625019E-1,1.376374960E0,1.220999956E-1
2.443919208E0,-2.392500043E-1,1.383937478E0,1.731124967E-1
2.446452780E0,-2.201374918E-1,1.413637519E0,2.220624983E-1
2.448986547E0,-2.062499970E-1,1.506312490E0,2.465374917E-1
2.451520164E0,-2.094125003E-1,1.656324983E0,2.444749922E-1
2.454053932E0,-2.062499970E-1,1.879762530E0,2.211000025E-1
2.456587463E0,-1.891999990E-1,2.113924980E0,1.975875050E-1
2.459121077E0,-1.903000027E-1,2.206462383E0,1.944250017E-1
2.461654617E0,-2.062499970E-1,2.246887445E0,2.050125003E-1
2.464188384E0,-2.499749959E-1,2.252249956E0,2.285249978E-1
2.466722011E0,-3.106124997E-1,2.156549931E0,2.817375064E-1
2.469255549E0,-3.627249897E-1,2.020287514E0,3.477374911E-1
2.471789316E0,-3.925625086E-1,1.944662452E0,3.933874965E-1
2.474322857E0,-4.096125066E-1,1.889387488E0,4.147000015E-1
2.476856485E0,-4.179999828E-1,1.822287440E0,4.243249893E-1
2.479390254E0,-4.148375094E-1,1.775537491E0,4.147000015E-1
2.481923872E0,-4.105750024E-1,1.746799946E0,3.891249895E-1
2.484457410E0,-4.190999866E-1,1.728649974E0,3.689124882E-1
2.486991197E0,-4.404124916E-1,1.708437443E0,3.423750103E-1
2.489524737E0,-4.626874924E-1,1.675437450E0,3.147374988E-1
2.492058350E0,-4.808374941E-1,1.644637465E0,2.902624905E-1
2.494592120E0,-4.914250076E-1,1.594587445E0,2.615250051E-1
2.497125646E0,-4.925250113E-1,1.555262446E0,2.285249978E-1
2.499659259E0,-4.839999974E-1,1.518000007E0,1.870000064E-1
2.502192800E0,-4.808374941E-1,1.454062462E0,1.423124969E-1
2.504726567E0,-4.797374904E-1,1.393424988E0,9.652499855E-2
2.507260209E0,-4.712125063E-1,1.359462500E0,5.926249921E-2
2.509793976E0,-4.669499993E-1,1.298687458E0,2.942499891E-2
2.512327516E0,-4.648874998E-1,1.220037460E0,8.249999955E-3
2.514861130E0,-4.595249891E-1,1.178512454E0,-1.526249945E-2
2.517394674E0,-4.457750022E-1,1.140149951E0,-4.716249928E-2
2.519928441E0,-4.329875112E-1,1.090100050E0,-8.442500234E-2
2.522462059E0,-4.170374870E-1,1.057099938E0,-1.120624989E-1
2.524995597E0,-3.999874890E-1,1.037987471E0,-1.365374923E-1
2.527529364E0,-3.871999979E-1,1.003887534E0,-1.630750000E-1
2.530062982E0,-3.712500036E-1,9.699249864E-1,-1.918125004E-1
2.532596520E0,-3.553000093E-1,9.497125149E-1,-2.238499969E-1
2.535130288E0,-3.436124921E-1,9.230374694E-1,-2.450249940E-1
2.537663910E0,-3.286249936E-1,8.996624947E-1,-2.535499930E-1
2.540197448E0,-3.180375099E-1,8.549749851E-1,-2.600125074E-1
2.542731216E0,-3.180375099E-1,7.921375036E-1,-2.759625018E-1
2.545264756E0,-3.158375025E-1,7.325999737E-1,-2.930124998E-1
2.547798379E0,-3.137750030E-1,6.857125163E-1,-2.982375026E-1
2.550332149E0,-3.106124997E-1,6.389625072E-1,-2.908124924E-1
2.552865689E0,-3.031874895E-1,6.048625112E-1,-2.609750032E-1
2.555399303E0,-2.903999984E-1,5.931749940E-1,-2.281125039E-1
2.557933091E0,-2.796750069E-1,5.803874731E-1,-2.003374994E-1
2.560466631E0,-2.690874934E-1,5.698000193E-1,-1.737999916E-1
2.563000245E0,-2.690874934E-1,5.484874845E-1,-1.428624988E-1
2.565534014E0,-2.690874934E-1,5.325375199E-1,-1.055999994E-1
2.568067539E0,-2.787125111E-1,5.293750167E-1,-6.943749636E-2
2.570601153E0,-2.870999873E-1,5.314375162E-1,-2.791249938E-2
2.573134693E0,-2.978250086E-1,5.123249888E-1,2.887499984E-3
2.575668460E0,-3.126749992E-1,4.963749945E-1,2.419999987E-2
2.578202078E0,-3.158375025E-1,5.080624819E-1,5.073750019E-2
2.580735616E0,-3.148750067E-1,5.197499990E-1,8.057499677E-2
2.583269384E0,-3.180375099E-1,5.048999786E-1,9.762500226E-2
2.585802924E0,-3.222999871E-1,5.048999786E-1,1.104125008E-1
2.588336759E0,-3.297249973E-1,5.026999712E-1,1.252624989E-1
2.590870300E0,-3.371500075E-1,4.793249965E-1,1.401125044E-1
2.593403915E0,-3.616249859E-1,3.803249896E-1,1.784749925E-1
2.595937454E0,-3.797749877E-1,3.484250009E-1,2.455749959E-1
2.598471216E0,-3.744125068E-1,4.133250117E-1,2.743124962E-1
2.601004756E0,-3.690499961E-1,4.027374983E-1,2.721124887E-1
2.603538370E0,-3.553000093E-1,3.686375022E-1,2.529999912E-1
2.606072139E0,-3.382500112E-1,3.537875116E-1,2.220624983E-1
2.608605650E0,-3.212000132E-1,3.473249972E-1,1.901624948E-1
2.611139264E0,-3.158375025E-1,3.174875081E-1,1.603250057E-1
2.613673033E0,-3.095124960E-1,2.983750105E-1,1.443749964E-1
2.616206573E0,-2.998875082E-1,2.994749844E-1,1.454750001E-1
2.618740192E0,-2.892999947E-1,3.132250011E-1,1.497374922E-1
2.621273732E0,-2.744500041E-1,3.462249935E-1,1.539999992E-1
2.623807500E0,-2.637250125E-1,3.771624863E-1,1.539999992E-1
2.626341117E0,-2.520374954E-1,4.036999941E-1,1.326874942E-1
2.628874855E0,-2.371875048E-1,4.261125028E-1,1.135749966E-1
2.631408396E0,-2.222000062E-1,4.324375093E-1,9.336250275E-2
2.633942009E0,-2.147749960E-1,4.101625085E-1,7.741250098E-2
2.636475549E0,-2.116124928E-1,3.473249972E-1,8.167500049E-2
2.639009347E0,-2.030874938E-1,2.824249864E-1,9.019999951E-2
2.641542887E0,-1.775124967E-1,3.111625016E-1,9.116250277E-2
2.644076731E0,-1.359875053E-1,3.675374985E-1,7.837499678E-2
2.646610272E0,-1.094499975E-1,3.920125067E-1,4.963750020E-2
2.649143868E0,-9.350000322E-2,4.355999827E-1,2.516249940E-2
2.651677407E0,-8.277499676E-2,4.941749871E-1,1.347499993E-2
2.654211174E0,-8.071249723E-2,5.516499877E-1,8.249999955E-3
2.656744791E0,-8.071249723E-2,6.113250256E-1,1.251249947E-2
2.659278334E0,-8.607500046E-2,6.729249954E-1,1.773750037E-2
2.661812101E0,-8.277499676E-2,7.336999774E-1,3.162499890E-2
2.664345718E0,-7.851249725E-2,7.911750078E-1,3.795000166E-2
2.666879257E0,-7.328750193E-2,8.453499675E-1,4.331250116E-2
2.669413034E0,-7.012499869E-2,8.868749738E-1,4.221250117E-2
2.671946575E0,-6.476250291E-2,9.230374694E-1,5.073750019E-2
2.674480188E0,-5.829999968E-2,9.497125149E-1,7.631249726E-2
2.677013957E0,-4.344999790E-2,1.024237514E0,9.652499855E-2
2.679547498E0,-4.881250113E-2,9.113500118E-1,9.116250277E-2
2.682081111E0,-7.012499869E-2,5.750250220E-1,8.483749628E-2
2.684614880E0,-5.307500064E-2,2.930124998E-1,4.221250117E-2
2.687148421E0,-4.455000162E-2,1.153625026E-1,-7.053750008E-2
2.689682039E0,-3.492499888E-2,3.024999984E-2,-1.471250057E-1
2.692215580E0,-2.639999986E-2,-6.984999776E-2,-1.610125005E-1
2.694749424E0,-3.024999984E-3,-1.985500008E-1,-1.226499975E-1
2.697282964E0,2.144999988E-2,-3.156999946E-1,-7.479999959E-2
2.699816716E0,4.908749834E-2,-3.667125106E-1,-2.791249938E-2
2.702350257E0,7.356250286E-2,-3.444375098E-1,2.199999988E-2
2.704883870E0,7.466249913E-2,-3.092375100E-1,7.521250099E-2
2.707417640E0,5.981250107E-2,-2.475000024E-1,1.167374998E-1
2.709951161E0,4.386249930E-2,-1.518000066E-1,1.443749964E-1
2.712484774E0,2.681249939E-2,-8.359999955E-2,1.497374922E-1
2.715018315E0,1.512499992E-2,-2.722499892E-2,1.273249984E-1
2.717552082E0,1.292499993E-2,1.319999993E-2,9.116250277E-2
2.720085709E0,2.254999988E-2,2.268750034E-2,5.816249922E-2
2.722619476E0,3.629999980E-2,1.952499896E-2,2.942499891E-2
2.725153016E0,4.386249930E-2,1.003750041E-2,1.677500084E-2
2.727686555E0,4.482499883E-2,-7.012499962E-3,6.049999967E-3
2.730220183E0,4.592499882E-2,-2.626249939E-2,-2.474999987E-3
2.732753952E0,4.276249930E-2,-5.073750019E-2,-1.196249947E-2
2.735287570E0,3.959999979E-2,-6.668750197E-2,-2.268750034E-2
2.737821108E0,3.959999979E-2,-7.617499679E-2,-4.069999978E-2
2.740354884E0,4.166249931E-2,-6.984999776E-2,-6.201250106E-2
2.742888425E0,4.276249930E-2,-5.486249924E-2,-8.112499863E-2
2.745422038E0,3.849999979E-2,-2.942499891E-2,-9.721250087E-2
2.747955808E0,3.313750029E-2,5.774999969E-3,-1.109625027E-1
2.750489377E0,2.254999988E-2,4.083750024E-2,-1.226499975E-1
2.753022990E0,1.512499992E-2,7.809999585E-2,-1.354375035E-1
2.755556531E0,9.762499481E-3,1.079374999E-1,-1.461624950E-1
2.758090298E0,2.337499987E-3,1.227874979E-1,-1.471250057E-1
2.760623939E0,-7.287499961E-3,1.387374997E-1,-1.482249945E-1
2.763157707E0,-2.103750035E-2,1.483625025E-1,-1.354375035E-1
2.765691247E0,-2.529999986E-2,1.546874940E-1,-1.109625027E-1
2.768224861E0,-2.859999985E-2,1.663749963E-1,-7.906249911E-2
2.770758445E0,-3.066249937E-2,1.748999953E-1,-5.142499879E-2
2.773292212E0,-3.382499889E-2,1.696749926E-1,-2.804999985E-2
2.775825830E0,-3.602499887E-2,1.398375034E-1,-4.537499975E-3
2.778359368E0,-4.028749838E-2,1.014750004E-1,1.773750037E-2
2.780893144E0,-3.492499888E-2,7.603749633E-2,5.609999970E-2
2.783426762E0,-3.066249937E-2,5.252499878E-2,9.019999951E-2
2.785960300E0,-2.323750034E-2,3.877500072E-2,1.113749966E-1
2.788494067E0,-1.787500083E-2,3.547500074E-2,1.326874942E-1
2.791027719E0,-1.471249945E-2,4.936249927E-2,1.443749964E-1
2.793561257E0,-1.691249944E-2,7.919999957E-2,1.508374959E-1
2.796095025E0,-2.103750035E-2,1.111000031E-1,1.560624987E-1
2.798628642E0,-2.749999985E-2,1.461624950E-1,1.571625024E-1
2.801162164E0,-2.433750033E-2,1.919499934E-1,1.551000029E-1
2.803695932E0,-1.471249945E-2,2.312749922E-1,1.539999992E-1
2.806229472E0,-9.349999949E-3,2.505249977E-1,1.551000029E-1
2.808763086E0,-1.924999990E-3,2.653749883E-1,1.551000029E-1
2.811296870E0,8.662499487E-3,2.770625055E-1,1.603250057E-1
2.813830487E0,1.402499992E-2,2.963125110E-1,1.645874977E-1
2.816364026E0,2.034999989E-2,3.260124922E-1,1.699499935E-1
2.818897793E0,3.107500076E-2,3.515875041E-1,1.678874940E-1
2.821431362E0,4.386249930E-2,3.792249858E-1,1.710499972E-1
2.823964976E0,5.555000156E-2,4.047999978E-1,1.688500047E-1
2.826498745E0,6.503749639E-2,4.335374832E-1,1.688500047E-1
2.829032285E0,7.259999961E-2,4.569124877E-1,1.742125005E-1
2.831565894E0,8.318749815E-2,4.728625119E-1,1.859000027E-1
2.834099434E0,8.524999768E-2,4.878500104E-1,1.859000027E-1
2.836633278E0,1.013374999E-1,5.069624782E-1,1.912624985E-1
2.839166819E0,1.161874980E-1,4.910124838E-1,1.975875050E-1
2.841700591E0,1.215500012E-1,4.505875111E-1,2.177999914E-1
2.844234132E0,1.247124970E-1,4.164874852E-1,2.518999875E-1
2.846767745E0,1.310375035E-1,4.047999978E-1,2.721124887E-1
2.849301285E0,1.406625062E-1,3.931125104E-1,2.774749994E-1
2.851835033E0,1.480875015E-1,3.643749952E-1,2.763749957E-1
2.854368650E0,1.629374921E-1,3.388000131E-1,2.572624981E-1
2.856902189E0,1.885125041E-1,3.048374951E-1,2.114749998E-1
2.859435956E0,2.396624982E-1,2.579500079E-1,1.178374961E-1
2.861969511E0,3.099249899E-1,2.026749998E-1,-5.995000154E-2
2.864503125E0,3.460874856E-1,1.196250021E-1,-2.770625055E-1
2.867036894E0,3.194124997E-1,1.429999992E-2,-4.355999827E-1
2.869570511E0,2.609750032E-1,-8.263749629E-2,-5.292375088E-1
2.872104074E0,2.140875012E-1,-1.134374961E-1,-5.409250259E-1
2.874637841E0,1.896124929E-1,-1.102750003E-1,-4.802874923E-1
2.877171458E0,1.694000065E-1,-1.091749966E-1,-3.707000017E-1
2.879704997E0,1.683000028E-1,-3.038750030E-2,-2.216500044E-1
2.882238754E0,1.694000065E-1,9.941250086E-2,-3.217500076E-2
2.884772295E0,1.597750038E-1,2.175250053E-1,1.582625061E-1
2.887306139E0,1.449249983E-1,3.419624865E-1,3.093749881E-1
2.889839679E0,1.310375035E-1,4.602124989E-1,4.009499848E-1
2.892373213E0,1.204499975E-1,5.378999710E-1,4.243249893E-1
2.894906826E0,1.215500012E-1,5.581125021E-1,3.924250007E-1
2.897440595E0,1.300749928E-1,5.410624743E-1,3.071750104E-1
2.899974136E0,1.395625025E-1,4.995374978E-1,1.827374995E-1
2.902507749E0,1.480875015E-1,4.366999865E-1,5.609999970E-2
2.905041518E0,1.523499936E-1,3.814249933E-1,-4.496249929E-2
2.907575059E0,1.534499973E-1,3.260124922E-1,-1.205874979E-1
2.910108672E0,1.502874941E-1,2.761000097E-1,-1.630750000E-1
2.912642204E0,1.460250020E-1,2.419999987E-1,-1.652749926E-1
2.915175971E0,1.460250020E-1,2.186249942E-1,-1.471250057E-1
2.917709588E0,1.406625062E-1,1.973125041E-1,-1.141249985E-1
2.920243127E0,1.406625062E-1,1.930499971E-1,-8.222500235E-2
2.922776865E0,1.460250020E-1,1.951124966E-1,-5.568749830E-2
2.925310482E0,1.480875015E-1,2.121624947E-1,-3.327500075E-2
2.927844250E0,1.480875015E-1,2.345750034E-1,-1.842499897E-2
2.930377790E0,1.427250057E-1,2.419999987E-1,-7.699999958E-3
2.932911384E0,1.352999955E-1,2.473624945E-1,-1.374999993E-3
2.935444925E0,1.236125007E-1,2.516250014E-1,1.787499990E-3
2.937978692E0,1.065625027E-1,2.547875047E-1,6.049999967E-3
2.940512310E0,8.855000138E-2,2.525874972E-1,1.251249947E-2
2.943045844E0,7.150000334E-2,2.419999987E-1,2.309999987E-2
2.945579611E0,5.238749832E-2,2.334749997E-1,3.698749840E-2
2.948113152E0,4.166249931E-2,2.195875049E-1,5.183750018E-2
2.950646765E0,2.887500077E-2,2.089999914E-1,6.778749824E-2
2.953180534E0,2.034999989E-2,1.962125003E-1,8.593750000E-2
2.955714152E0,9.762499481E-3,1.802625060E-1,1.039500013E-1
2.958247690E0,3.437499981E-3,1.568875015E-1,1.231999993E-1
2.960781457E0,-6.187499966E-3,1.344749928E-1,1.465750039E-1
2.963314992E0,-2.007500082E-2,1.216875017E-1,1.625249982E-1
2.965848605E0,-3.176249936E-2,1.196250021E-1,1.731124967E-1
2.968382375E0,-4.138749838E-2,1.227874979E-1,1.753125042E-1
2.970915915E0,-4.661250114E-2,1.207249984E-1,1.742125005E-1
2.973449518E0,-5.513750017E-2,1.207249984E-1,1.688500047E-1
2.975983288E0,-5.829999968E-2,1.185249984E-1,1.571625024E-1
2.978516828E0,-5.829999968E-2,1.249874979E-1,1.391499937E-1
2.981050442E0,-5.403750017E-2,1.333750039E-1,1.199000031E-1
2.983584187E0,-4.881250113E-2,1.472624987E-1,1.018875018E-1
2.986117727E0,-4.661250114E-2,1.600500047E-1,8.483749628E-2
2.988651341E0,-4.771250114E-2,1.717374921E-1,6.572499871E-2
2.991185110E0,-4.455000162E-2,1.930499971E-1,5.499999970E-2
2.993718650E0,-4.138749838E-2,2.079000026E-1,4.647500068E-2
2.996252264E0,-3.286249936E-2,2.121624947E-1,3.795000166E-2
2.998785804E0,-2.639999986E-2,2.015749961E-1,2.846249938E-2
3.001319571E0,-1.471249945E-2,1.993750036E-1,2.516249940E-2
3.003853175E0,1.237499993E-3,1.941500008E-1,2.736249939E-2
3.006386942E0,1.718750037E-2,1.834249943E-1,3.162499890E-2
3.008920483E0,2.571249940E-2,1.643124968E-1,3.904999793E-2
3.011454096E0,3.739999980E-2,1.333750039E-1,3.795000166E-2
3.013987645E0,4.056249931E-2,1.025749967E-1,3.162499890E-2
3.016521413E0,3.533750027E-2,8.126249909E-2,2.626249939E-2
3.019055030E0,2.791249938E-2,7.273750007E-2,2.199999988E-2
3.021588568E0,2.681249939E-2,7.919999957E-2,1.993750036E-2
3.024122327E0,2.254999988E-2,9.624999762E-2,1.883750036E-2
3.026655944E0,2.791249938E-2,1.238875017E-1,2.419999987E-2
3.029189483E0,3.849999979E-2,1.611499935E-1,3.588749841E-2
3.031723250E0,4.812499881E-2,2.047374994E-1,4.551250115E-2
3.034256852E0,5.128749833E-2,2.355374992E-1,5.073750019E-2
3.036790391E0,5.871250108E-2,2.685374916E-1,4.757500067E-2
3.039324158E0,7.892499864E-2,2.963125110E-1,4.015000165E-2
3.041857775E0,8.744999766E-2,3.037374914E-1,3.052499890E-2
3.044391306E0,9.597499669E-2,3.015374839E-1,1.883750036E-2
3.046925073E0,9.913749993E-2,3.005749881E-1,4.949999973E-3
3.049458613E0,1.055999994E-1,2.994749844E-1,1.787499990E-3
3.051992227E0,1.002374962E-1,2.803624868E-1,-1.374999993E-3
3.054525785E0,9.281250089E-2,2.727999985E-1,-3.437499981E-3
3.057059553E0,7.892499864E-2,2.558875084E-1,-9.899999946E-3
3.059593170E0,6.077500060E-2,2.462625057E-1,-3.121249937E-2
3.062126937E0,5.238749832E-2,2.505249977E-1,-6.627500057E-2
3.064660459E0,4.908749834E-2,2.355374992E-1,-8.222500235E-2
3.067194072E0,3.533750027E-2,2.217874974E-1,-8.868750185E-2
3.069727841E0,1.828750037E-2,2.100999951E-1,-8.868750185E-2
3.072261382E0,-8.249999955E-4,1.930499971E-1,-9.721250087E-2
3.074795004E0,-1.787500083E-2,1.717374921E-1,-9.075000137E-2
3.077328545E0,-3.808749840E-2,1.472624987E-1,-4.606249928E-2
3.079862312E0,-7.328750193E-2,1.568875015E-1,-1.732499897E-2
3.082395929E0,-7.328750193E-2,1.791625023E-1,-2.584999986E-2
3.084929482E0,-5.197500065E-2,1.887875050E-1,-1.952499896E-2
3.087463249E0,-5.939999968E-2,1.728374958E-1,-4.496249929E-2
3.089996866E0,-6.256250292E-2,1.791625023E-1,-1.174250022E-1
3.092530405E0,-5.513750017E-2,2.047374994E-1,-8.964999765E-2
3.095064177E0,-8.923749626E-2,2.110625058E-1,-9.501250088E-2
3.097597794E0,-9.556250274E-2,2.089999914E-1,-1.088999957E-1
3.100131333E0,-7.644999772E-2,2.398000062E-1,-5.775000155E-2
3.102665100E0,-7.851249725E-2,2.483250052E-1,-8.648750186E-2
3.105198641E0,-3.712499887E-2,2.568500042E-1,-5.568749830E-2
3.107732254E0,-1.581249945E-2,3.260124922E-1,-2.901249938E-2
3.110266023E0,-1.581249945E-2,3.547500074E-1,1.677500084E-2
3.112799564E0,-1.924999990E-3,3.899500072E-1,-3.437499981E-3
3.115333135E0,4.399999976E-3,3.697375059E-1,1.347499993E-2
3.117866676E0,7.562499959E-3,3.749625087E-1,-1.099999994E-2
3.120400443E0,1.292499993E-2,3.558500111E-1,-3.011249937E-2
3.122934060E0,1.086249948E-2,4.027374983E-1,-3.863750026E-2
3.125467811E0,1.374999993E-4,4.420624971E-1,-3.643750027E-2
3.128001352E0,-1.471249945E-2,4.474250078E-1,-6.737499684E-2
3.130534965E0,-2.323750034E-2,4.505875111E-1,-8.964999765E-2
3.133068506E0,-3.066249937E-2,4.229499996E-1,-1.248499975E-1
3.135602278E0,-4.344999790E-2,4.175874889E-1,-1.588124931E-1
3.138135895E0,-7.108750194E-2,4.153875113E-1,-1.546874940E-1
3.140669663E0,-7.328750193E-2,4.357374907E-1,-1.524875015E-1
3.143203203E0,-8.497499675E-2,3.994374871E-1,-1.578499973E-1
3.145736811E0,-1.157749966E-1,2.930124998E-1,-1.834249943E-1
3.148270352E0,-1.190750003E-1,2.696374953E-1,-1.801249981E-1
3.150804119E0,-8.607500046E-2,3.345375061E-1,-1.513874978E-1
3.153337737E0,-1.029874980E-1,2.622124851E-1,-1.673374921E-1
3.155871251E0,-1.200374961E-1,1.249874979E-1,-2.333374918E-1
3.158405018E0,-1.051874980E-1,5.472499877E-2,-2.993375063E-1
3.160938636E0,-6.792499870E-2,7.493750006E-2,-2.631750107E-1
3.163472174E0,1.182499994E-2,2.110625058E-1,-1.428624988E-1
3.166005932E0,1.938750036E-2,1.951124966E-1,-1.024374962E-1
3.168539473E0,-8.249999955E-4,4.729999974E-2,-1.748999953E-1
3.171073086E0,3.437499981E-3,-5.706249923E-2,-2.833875120E-1
3.173606855E0,4.166249931E-2,-9.968750179E-2,-3.355000019E-1
3.176140482E0,1.182499975E-1,8.937500417E-3,-2.652375102E-1
3.178674020E0,1.438249946E-1,9.198749810E-2,-2.259124964E-1
3.181207788E0,1.236125007E-1,-2.749999985E-3,-2.525874972E-1
3.183741328E0,1.055999994E-1,-9.748750180E-2,-3.557125032E-1
3.186274956E0,1.087625027E-1,-1.453374922E-1,-4.686000049E-1
3.188808726E0,1.076624990E-1,-1.518000066E-1,-4.877125025E-1
3.191342266E0,1.342000067E-1,-3.684999794E-2,-3.727625012E-1
3.193875879E0,1.375000030E-1,7.809999585E-2,-3.132250011E-1
3.196409400E0,9.061250091E-2,2.378750034E-2,-3.451249897E-1
3.198943244E0,5.651250109E-2,-4.963750020E-2,-3.877499998E-1
3.201476785E0,2.887500077E-2,-8.786249906E-2,-4.663999975E-1
3.204010552E0,2.887500077E-2,-1.230624989E-1,-5.792874694E-1
3.206544083E0,5.444999784E-2,-1.794375032E-1,-6.558749676E-1
3.209077697E0,8.951249719E-2,-1.645874977E-1,-6.367624998E-1
3.211611237E0,1.161874980E-1,-6.984999776E-2,-5.036625266E-1
3.214145004E0,1.438249946E-1,1.429999992E-2,-4.302375019E-1
3.216678612E0,1.310375035E-1,-3.795000166E-2,-5.132874846E-1
3.219212150E0,1.193500012E-1,-1.304875016E-1,-5.717250109E-1
3.221745917E0,1.044999957E-1,-1.773750037E-1,-5.739250183E-1
3.224279535E0,9.171249717E-2,-1.911250055E-1,-5.398250222E-1
3.226813302E0,7.892499864E-2,-1.868624985E-1,-5.079249740E-1
3.229346843E0,6.187500060E-2,-1.975875050E-1,-5.005000234E-1
3.231880456E0,4.166249931E-2,-2.252250016E-1,-5.196124911E-1
3.234413996E0,1.718750037E-2,-2.762374878E-1,-5.335000157E-1
3.236947764E0,-1.471249945E-2,-3.125374913E-1,-5.218124986E-1
3.239481381E0,-5.087500066E-2,-3.411374986E-1,-4.791874886E-1
3.242014920E0,-7.535000145E-2,-3.859624863E-1,-4.248749912E-1
3.244548687E0,-8.607500046E-2,-4.124999940E-1,-3.642374873E-1
3.247082227E0,-9.129999578E-2,-4.263874888E-1,-2.961750031E-1
3.249616071E0,-1.009249985E-1,-4.486624897E-1,-2.344374955E-1
3.252149612E0,-1.148125008E-1,-4.720374942E-1,-1.823250055E-1
3.254683150E0,-1.233374998E-1,-4.881249964E-1,-1.077999994E-1
3.257216764E0,-1.200374961E-1,-4.944500029E-1,-2.474999987E-2
3.259750533E0,-1.040875018E-1,-5.115000010E-1,-3.011249937E-2
3.262284150E0,-9.239999950E-2,-5.295125246E-1,-6.627500057E-2
3.264817689E0,-9.776250273E-2,-5.306124687E-1,-1.237500012E-1
3.267351456E0,-1.062875018E-1,-5.593500137E-1,-1.823250055E-1
3.269884997E0,-1.020250022E-1,-5.689749718E-1,-2.216500044E-1
3.272418610E0,-1.051874980E-1,-5.508249998E-1,-2.407625020E-1
3.274952379E0,-1.072499976E-1,-5.413374901E-1,-2.514874935E-1
3.277485958E0,-9.776250273E-2,-5.285499692E-1,-2.205500007E-1
3.280019571E0,-9.239999950E-2,-5.168625116E-1,-1.673374921E-1
3.282553111E0,-8.923749626E-2,-4.944500029E-1,-2.398000062E-1
3.285086879E0,-7.108750194E-2,-5.433999896E-1,-3.419624865E-1
3.287620516E0,-5.307500064E-2,-5.902875066E-1,-3.929750025E-1
3.290154055E0,-4.661250114E-2,-5.625125170E-1,-4.345000088E-1
3.292687822E0,-4.235000163E-2,-5.422999859E-1,-4.611749947E-1
3.295221439E0,-4.564999789E-2,-5.317124724E-1,-4.845499992E-1
3.297754950E0,-4.455000162E-2,-5.135625005E-1,-5.270375013E-1
3.300288636E0,-3.066249937E-2,-5.083374977E-1,-5.526124835E-1
3.302822297E0,-1.897500083E-2,-4.890874922E-1,-5.643000007E-1
3.305355873E0,-2.323750034E-2,-4.423374832E-1,-5.696625113E-1
3.307889640E0,-3.066249937E-2,-3.848625124E-1,-5.707625151E-1
3.310423180E0,-4.028749838E-2,-3.040125072E-1,-5.835499763E-1
3.312957025E0,-7.012499869E-2,-1.709125042E-1,-5.952374935E-1
3.315490593E0,-1.222374961E-1,2.694999985E-2,-6.186124682E-1
3.318024208E0,-2.062499970E-1,3.026374876E-1,-6.686624885E-1
3.320557747E0,-2.978250086E-1,5.069624782E-1,-6.994624734E-1
3.323091514E0,-2.903999984E-1,4.398624897E-1,-5.995000005E-1
3.325625142E0,-1.561999917E-1,1.993750036E-1,-3.579125106E-1
3.328158680E0,3.313750029E-2,-6.764999777E-2,-6.627500057E-2
3.330692447E0,1.821874976E-1,-2.124374956E-1,9.542500228E-2
3.333226065E0,2.417249978E-1,-2.508000135E-1,5.609999970E-2
3.335759603E0,2.385624945E-1,-2.602874935E-1,-6.737499684E-2
3.338293370E0,2.289374918E-1,-2.582249939E-1,-1.588124931E-1
3.340826911E0,2.470874935E-1,-2.539624870E-1,-1.832875013E-1
3.343360524E0,2.778874934E-1,-2.571249902E-1,-1.737999916E-1
3.345894298E0,3.003000021E-1,-2.975499928E-1,-1.482249945E-1
3.348427839E0,3.088249862E-1,-3.242250085E-1,-1.461624950E-1
3.350961452E0,2.938374877E-1,-3.188624978E-1,-1.524875015E-1
3.353495222E0,2.747249901E-1,-2.795374990E-1,-1.684374958E-1
3.356028762E0,2.630375028E-1,-2.113374919E-1,-1.832875013E-1
3.358562375E0,2.587749958E-1,-1.495999992E-1,-1.951124966E-1
3.361095916E0,2.587749958E-1,-1.060125008E-1,-2.238499969E-1
3.363629760E0,2.758249938E-1,-6.022499874E-2,-2.663374841E-1
3.366163330E0,3.003000021E-1,-2.942499891E-2,-2.939749956E-1
3.368697097E0,3.279374838E-1,1.429999992E-2,-3.206500113E-1
3.371230637E0,3.449875116E-1,4.826249927E-2,-3.429250121E-1
3.373764251E0,3.407250047E-1,7.493750006E-2,-3.568125069E-1
3.376298015E0,3.258749843E-1,1.099999994E-1,-3.673999906E-1
3.378831555E0,3.014000058E-1,1.398375034E-1,-3.781250119E-1
3.381365169E0,2.684000134E-1,1.611499935E-1,-3.834874928E-1
3.383898709E0,2.289374918E-1,1.813624948E-1,-3.844499886E-1
3.386432461E0,1.864500046E-1,1.962125003E-1,-3.781250119E-1
3.388966079E0,1.491875052E-1,2.025374919E-1,-3.707000017E-1
3.391499617E0,1.150875017E-1,2.015749961E-1,-3.557125032E-1
3.394033385E0,9.171249717E-2,1.984124929E-1,-3.334375024E-1
3.396566997E0,7.259999961E-2,1.845249981E-1,-3.121249974E-1
3.399100764E0,5.444999784E-2,1.685750037E-1,-2.876499891E-1
3.401634305E0,3.629999980E-2,1.526249945E-1,-2.568500042E-1
3.404167918E0,1.512499992E-2,1.302125007E-1,-2.270125002E-1
3.406701454E0,-1.691249944E-2,1.142624989E-1,-1.908500046E-1
3.409235222E0,-5.513750017E-2,1.068374962E-1,-1.535875052E-1
3.411768839E0,-9.886249900E-2,9.831249714E-2,-1.237500012E-1
3.414302378E0,-1.424500048E-1,9.831249714E-2,-8.538749814E-2
3.416836111E0,-1.839749962E-1,9.831249714E-2,-4.922499880E-2
3.419369728E0,-2.179374993E-1,1.121999994E-1,-1.526249945E-2
3.421903495E0,-2.488749921E-1,1.270499974E-1,2.199999988E-2
3.424437036E0,-2.796750069E-1,1.366750002E-1,4.441250116E-2
3.426970649E0,-3.074499965E-1,1.706375033E-1,7.095000148E-2
3.429504190E0,-3.328875005E-1,1.941500008E-1,8.483749628E-2
3.432037957E0,-3.521375060E-1,2.398000062E-1,9.446249902E-2
3.434571574E0,-3.733125031E-1,2.813250124E-1,9.762500226E-2
3.437105113E0,-3.957250118E-1,3.057999909E-1,9.446249902E-2
3.439638880E0,-4.105750024E-1,3.526875079E-1,9.872499853E-2
3.442172421E0,-4.233624935E-1,3.877499998E-1,9.226249903E-2
3.444706034E0,-4.265249968E-1,4.122250080E-1,8.910000324E-2
3.447239765E0,-4.255625010E-1,4.516874850E-1,8.689999580E-2
3.449773383E0,-4.190999866E-1,4.793249965E-1,8.167500049E-2
3.452306921E0,-4.127750099E-1,4.835875034E-1,7.521250099E-2
3.454840688E0,-4.053499997E-1,5.069624782E-1,7.315000147E-2
3.457374271E0,-3.914625049E-1,5.229125023E-1,6.668750197E-2
3.459907809E0,-3.723500073E-1,5.399624705E-1,6.242499873E-2
3.462441576E0,-3.658874929E-1,5.655375123E-1,5.816249922E-2
3.464975117E0,-3.595624864E-1,6.080250144E-1,6.036249921E-2
3.467508764E0,-3.425124884E-1,6.527125239E-1,5.499999970E-2
3.470042305E0,-3.286249936E-1,6.771875024E-1,3.698749840E-2
3.472576149E0,-3.095124960E-1,6.921749711E-1,1.567500085E-2
3.475109689E0,-2.924624979E-1,7.261375189E-1,3.987499978E-3
3.477643208E0,-2.765125036E-1,7.666999698E-1,-2.749999985E-4
3.480176975E0,-2.583625019E-1,7.911750078E-1,-1.374999993E-3
3.482710592E0,-2.338874936E-1,8.049250245E-1,-1.374999993E-3
3.485244360E0,-2.105125040E-1,8.123499751E-1,-5.637499969E-3
3.487777886E0,-1.871374995E-1,8.060249686E-1,-1.196249947E-2
3.490311500E0,-1.615625024E-1,7.975000143E-1,-2.158750035E-2
3.492845040E0,-1.307625026E-1,7.889750004E-1,-3.547500074E-2
3.495378807E0,-1.083500013E-1,7.719249725E-1,-5.995000154E-2
3.497912449E0,-8.497499675E-2,7.655999660E-1,-8.538749814E-2
3.500445987E0,-7.218749821E-2,7.761874795E-1,-1.131625026E-1
3.502979754E0,-6.792499870E-2,7.772874832E-1,-1.343374997E-1
3.505513295E0,-6.256250292E-2,7.836124897E-1,-1.322750002E-1
3.508047148E0,-5.829999968E-2,7.772874832E-1,-1.280124933E-1
3.510580688E0,-4.881250113E-2,7.624375224E-1,-1.216875017E-1
3.513114304E0,-3.918749839E-2,7.442874908E-1,-1.035374999E-1
3.515647842E0,-2.749999985E-2,7.187125087E-1,-7.686249912E-2
3.518181625E0,-2.007500082E-2,6.890124679E-1,-4.496249929E-2
3.520715242E0,-9.349999949E-3,6.645374894E-1,-6.737499963E-3
3.523248780E0,4.399999976E-3,6.400625110E-1,2.942499891E-2
3.525782548E0,3.203750029E-2,6.028000116E-1,6.036249921E-2
3.528316083E0,6.503749639E-2,5.548124909E-1,8.910000324E-2
3.530849927E0,1.023000032E-1,5.026999712E-1,1.146750003E-1
3.533383468E0,1.278750002E-1,4.377999902E-1,1.476749927E-1
3.535917083E0,1.491875052E-1,3.675374985E-1,1.859000027E-1
3.538450612E0,1.597750038E-1,3.057999909E-1,2.296250015E-1
3.540984379E0,1.608749926E-1,2.451625019E-1,2.774749994E-1
3.543517996E0,1.640374959E-1,2.004749924E-1,3.156999946E-1
3.546051535E0,1.534499973E-1,1.654125005E-1,3.401750028E-1
3.548585312E0,1.395625025E-1,1.398375034E-1,3.625875115E-1
3.551118852E0,1.247124970E-1,1.302125007E-1,3.827999830E-1
3.553652466E0,1.087625027E-1,1.355749965E-1,3.924250007E-1
3.556186235E0,9.281250089E-2,1.546874940E-1,3.902249932E-1
3.558719794E0,7.466249913E-2,1.919499934E-1,3.711124957E-1
3.561253408E0,6.077500060E-2,2.271499932E-1,3.359124959E-1
3.563786948E0,5.444999784E-2,2.633124888E-1,2.849000096E-1
3.566320792E0,5.128749833E-2,2.866874933E-1,2.177999914E-1
3.568854324E0,5.444999784E-2,2.898499966E-1,1.497374922E-1
3.571388091E0,7.150000334E-2,2.718375027E-1,8.057499677E-2
3.573921632E0,9.061250091E-2,2.398000062E-1,1.773750037E-2
3.576455245E0,1.172875017E-1,1.919499934E-1,-3.121249937E-2
3.578989052E0,1.438249946E-1,1.313125044E-1,-6.943749636E-2
3.581522593E0,1.704999954E-1,6.641250104E-2,-9.501250088E-2
3.584056206E0,1.885125041E-1,-3.849999979E-3,-1.131625026E-1
3.586589975E0,2.087250054E-1,-6.558749825E-2,-1.365374923E-1
3.589123574E0,2.215124965E-1,-1.113749966E-1,-1.556500047E-1
3.591657112E0,2.300374955E-1,-1.634874940E-1,-1.610125005E-1
3.594190651E0,2.289374918E-1,-2.209624946E-1,-1.706375033E-1
3.596724418E0,2.322375029E-1,-2.613874972E-1,-1.737999916E-1
3.599258040E0,2.279749960E-1,-2.879250050E-1,-1.727000028E-1
3.601791808E0,2.257750034E-1,-3.018124998E-1,-1.663749963E-1
3.604325348E0,2.237125039E-1,-3.156999946E-1,-1.578499973E-1
3.606858961E0,2.140875012E-1,-3.273875117E-1,-1.461624950E-1
3.609392511E0,2.044624984E-1,-3.316499889E-1,-1.291124970E-1
3.611926278E0,1.959374994E-1,-3.209249973E-1,-1.088999957E-1
3.614459896E0,1.821874976E-1,-3.071750104E-1,-8.332499862E-2
3.616993663E0,1.586750001E-1,-2.890250087E-1,-5.568749830E-2
3.619527252E0,1.395625025E-1,-2.539624870E-1,-2.474999987E-2
3.622060866E0,1.108250022E-1,-2.102375031E-1,3.987499978E-3
3.624594635E0,8.428750187E-2,-1.592250019E-1,2.942499891E-2
3.627128175E0,5.761250108E-2,-1.060125008E-1,4.647500068E-2
3.629661775E0,2.681249939E-2,-5.169999972E-2,5.499999970E-2
3.632195315E0,-6.187499966E-3,-1.017499994E-2,6.462500244E-2
3.634729082E0,-3.492499888E-2,2.694999985E-2,8.263749629E-2
3.637262700E0,-5.939999968E-2,6.641250104E-2,1.039500013E-1
3.639796238E0,-7.755000144E-2,1.099999994E-1,1.274625063E-1
3.642330082E0,-9.129999578E-2,1.504250020E-1,1.497374922E-1
3.644863623E0,-1.040875018E-1,1.802625060E-1,1.667875051E-1
3.647397161E0,-1.094499975E-1,2.036374956E-1,1.710499972E-1
3.649930943E0,-1.168750003E-1,2.303124964E-1,1.721500009E-1
3.652464560E0,-1.254000068E-1,2.557500005E-1,1.688500047E-1
3.654998327E0,-1.285624951E-1,2.781625092E-1,1.656875014E-1
3.657531868E0,-1.285624951E-1,3.037374914E-1,1.593624949E-1
3.660065467E0,-1.157749966E-1,3.271124959E-1,1.401125044E-1
3.662599008E0,-9.776250273E-2,3.473249972E-1,1.156374961E-1
3.665132775E0,-7.851249725E-2,3.740000129E-1,8.910000324E-2
3.667666392E0,-5.197500065E-2,4.036999941E-1,6.352499872E-2
3.670199926E0,-3.602499887E-2,4.079625010E-1,4.331250116E-2
3.672733693E0,-2.433750033E-2,4.111250043E-1,3.588749841E-2
3.675267310E0,-2.859999985E-2,4.229499996E-1,5.183750018E-2
3.677801077E0,-4.344999790E-2,4.398624897E-1,8.263749629E-2
3.680334603E0,-5.623750016E-2,4.591124952E-1,1.104125008E-1
3.682868216E0,-7.012499869E-2,4.835875034E-1,1.337874979E-1
3.685401757E0,-8.277499676E-2,5.346000195E-1,1.519374996E-1
3.687935524E0,-9.666249901E-2,5.942749977E-1,1.710499972E-1
3.690469141E0,-1.126125008E-1,6.272749901E-1,1.870000064E-1
3.693002680E0,-1.339250058E-1,6.538124681E-1,1.901624948E-1
3.695536447E0,-1.520749927E-1,6.729249954E-1,1.975875050E-1
3.698069988E0,-1.669249982E-1,6.953374743E-1,2.051499933E-1
3.700603856E0,-1.754499972E-1,7.218750119E-1,2.135374993E-1
3.703137396E0,-1.732500046E-1,7.496500015E-1,2.199999988E-1
3.705671012E0,-1.689874977E-1,7.719249725E-1,2.188999951E-1
3.708204550E0,-1.711875051E-1,7.741249800E-1,2.146375030E-1
3.710738317E0,-1.711875051E-1,7.708249688E-1,2.051499933E-1
3.713271935E0,-1.680250019E-1,7.645000219E-1,1.923625022E-1
3.715805473E0,-1.658249944E-1,7.634000182E-1,1.805374920E-1
3.718339240E0,-1.849374920E-1,7.400249839E-1,1.636250019E-1
3.720872849E0,-2.010249943E-1,6.973999739E-1,1.391499937E-1
3.723406616E0,-2.147749960E-1,6.612374783E-1,1.231999993E-1
3.725940157E0,-2.307250053E-1,6.113250256E-1,1.082125008E-1
3.728473695E0,-2.466749996E-1,5.548124909E-1,1.050499976E-1
3.731007312E0,-2.648249865E-1,5.026999712E-1,1.093124971E-1
3.733541082E0,-2.776125073E-1,4.580124915E-1,1.124750003E-1
3.736074699E0,-2.967250049E-1,4.164874852E-1,1.146750003E-1
3.738608237E0,-3.148750067E-1,3.825249970E-1,1.146750003E-1
3.741142000E0,-3.328875005E-1,3.537875116E-1,1.050499976E-1
3.743675617E0,-3.510375023E-1,3.250499964E-1,8.689999580E-2
3.746209156E0,-3.658874929E-1,2.888875008E-1,5.499999970E-2
3.748742923E0,-3.658874929E-1,2.483250052E-1,1.031249948E-2
3.751276459E0,-3.573625088E-1,2.036374956E-1,-4.179999977E-2
3.753810303E0,-3.339875042E-1,1.568875015E-1,-1.003749967E-1
3.756343844E0,-3.041499853E-1,1.164624989E-1,-1.302125007E-1
3.758877459E0,-2.796750069E-1,9.198749810E-2,-1.589500010E-1
3.761410983E0,-2.424124926E-1,5.788749829E-2,-1.940124929E-1
3.763944750E0,-2.030874938E-1,1.526249945E-2,-2.333374918E-1
3.766478367E0,-1.626625061E-1,-8.112499490E-3,-2.696374953E-1
3.769011906E0,-1.274625063E-1,-1.017499994E-2,-2.930124998E-1
3.771545664E0,-9.350000322E-2,-1.553750038E-2,-3.152875006E-1
3.774079205E0,-5.939999968E-2,-1.237499993E-2,-3.249124885E-1
3.776612818E0,-2.529999986E-2,5.774999969E-3,-3.280749917E-1
3.779146587E0,5.499999970E-3,3.657500073E-2,-3.110249937E-1
3.781680098E0,3.739999980E-2,6.215000153E-2,-2.611125112E-1
3.784213711E0,7.039999962E-2,1.047749966E-1,-2.227499932E-1
3.786747480E0,7.466249913E-2,1.526249945E-1,-2.568500042E-1
3.789281098E0,7.686249912E-2,1.409374923E-1,-3.004375100E-1
3.791814631E0,9.597499669E-2,9.831249714E-2,-3.100624979E-1
3.794348398E0,1.130250022E-1,9.295000136E-2,-2.791250050E-1
3.796882016E0,1.193500012E-1,1.227874979E-1,-2.281125039E-1
3.799415554E0,1.193500012E-1,1.759999990E-1,-1.801249981E-1
3.801949321E0,1.172875017E-1,2.462625057E-1,-1.396999955E-1
3.804482862E0,1.087625027E-1,3.143250048E-1,-1.035374999E-1
3.807016475E0,1.087625027E-1,3.792249858E-1,-7.369999588E-2
3.809550245E0,1.215500012E-1,4.261125028E-1,-6.104999781E-2
3.812083862E0,1.278750002E-1,4.718999863E-1,-5.568749830E-2
3.814617400E0,1.267749965E-1,5.271750093E-1,-4.716249928E-2
3.817151168E0,1.278750002E-1,5.920749903E-1,-3.863750026E-2
3.819684785E0,1.363999993E-1,6.367624998E-1,-4.399999976E-2
3.822218334E0,1.428624988E-1,6.697624922E-1,-5.884999782E-2
3.824752101E0,1.449249983E-1,7.070249915E-1,-7.590000331E-2
3.827285641E0,1.406625062E-1,7.485499978E-1,-9.501250088E-2
3.829819485E0,1.352999955E-1,7.666999698E-1,-1.183874980E-1
3.832353006E0,1.278750002E-1,7.858124971E-1,-1.493249983E-1
3.834886544E0,1.150875017E-1,8.060249686E-1,-1.673374921E-1
3.837420158E0,1.108250022E-1,8.358625174E-1,-1.715999991E-1
3.839953927E0,1.247124970E-1,8.443874717E-1,-1.865874976E-1
3.842487544E0,1.395625025E-1,8.336625099E-1,-2.067999989E-1
3.845021083E0,1.469874978E-1,8.230749965E-1,-2.312749922E-1
3.847554850E0,1.512500048E-1,7.900750041E-1,-2.472250015E-1
3.850088467E0,1.566125005E-1,7.442874908E-1,-2.620750070E-1
3.852622001E0,1.555124968E-1,7.144500017E-1,-2.770625055E-1
3.855155768E0,1.395625025E-1,6.899750233E-1,-2.855874896E-1
3.857689309E0,1.267749965E-1,6.538124681E-1,-2.855874896E-1
3.860222922E0,1.215500012E-1,6.165499687E-1,-2.748624980E-1
3.862756682E0,1.119249985E-1,5.878124833E-1,-2.642749846E-1
3.865290300E0,1.033999994E-1,5.453249812E-1,-2.546499968E-1
3.867823838E0,9.281250089E-2,5.080624819E-1,-2.525874972E-1
3.870357605E0,8.538749814E-2,4.707999825E-1,-2.503874898E-1
3.872891204E0,7.356250286E-2,4.409624934E-1,-2.472250015E-1
3.875424742E0,5.871250108E-2,4.314749837E-1,-2.440624982E-1
3.877958509E0,5.128749833E-2,4.133250117E-1,-2.398000062E-1
3.880492127E0,4.592499882E-2,3.994374871E-1,-2.184875011E-1
3.883025641E0,4.386249930E-2,3.962749839E-1,-1.929125041E-1
3.885559409E0,4.276249930E-2,3.749625087E-1,-1.621125042E-1
3.888093026E0,5.018749833E-2,3.462249935E-1,-1.237500012E-1
3.890626564E0,6.517499685E-2,3.196874857E-1,-9.611249715E-2
3.893160327E0,7.892499864E-2,2.994749844E-1,-6.627500057E-2
3.895693944E0,9.487500042E-2,2.941125035E-1,-3.121249937E-2
3.898227482E0,1.119249985E-1,2.941125035E-1,9.212499484E-3
3.900761250E0,1.215500012E-1,3.015374839E-1,6.462500244E-2
3.903294820E0,1.289750040E-1,3.174875081E-1,1.187999994E-1
3.905828359E0,1.363999993E-1,3.367374837E-1,1.614249945E-1
3.908362126E0,1.363999993E-1,3.654749990E-1,1.997874975E-1
3.910895743E0,1.289750040E-1,4.186874926E-1,2.327875048E-1
3.913429306E0,1.236125007E-1,4.782249928E-1,2.593249977E-1
3.915963073E0,1.183874980E-1,5.303375125E-1,2.806375027E-1
3.918496690E0,1.055999994E-1,6.070625186E-1,2.945249975E-1
3.921030229E0,9.487500042E-2,6.964374781E-1,3.062124848E-1
3.923563991E0,8.635000139E-2,7.453874946E-1,3.167999983E-1
3.926097608E0,9.061250091E-2,7.645000219E-1,3.210625052E-1
3.928631147E0,9.707500041E-2,7.826499939E-1,3.284874856E-1
3.931164914E0,9.913749993E-2,8.017625213E-1,3.359124959E-1
3.933698559E0,9.707500041E-2,8.113874793E-1,3.551625013E-1
3.936232098E0,9.061250091E-2,8.017625213E-1,3.838999867E-1
3.938765865E0,8.002500236E-2,7.858124971E-1,4.232249856E-1
3.941299406E0,7.150000334E-2,7.676625252E-1,4.573250115E-1
3.943833034E0,5.555000156E-2,7.379624844E-1,4.775374830E-1
3.946366803E0,3.423750028E-2,7.006999850E-1,4.827624857E-1
3.948900421E0,1.402499992E-2,6.771875024E-1,4.796000123E-1
3.951433959E0,-6.187499966E-3,6.549124718E-1,4.625499845E-1
3.953967736E0,-1.361249946E-2,6.272749901E-1,4.371125102E-1
3.956501354E0,-2.103750035E-2,6.006000042E-1,4.008125067E-1
3.959034892E0,-2.433750033E-2,5.601750016E-1,3.657499850E-1
3.961568659E0,-1.787500083E-2,5.112249851E-1,3.423750103E-1
3.964102277E0,-1.361249946E-2,4.494875073E-1,3.273875117E-1
3.966635815E0,-1.044999994E-2,3.856875002E-1,3.199625015E-1
3.969169583E0,-1.154999994E-2,3.174875081E-1,3.167999983E-1
3.971703200E0,-1.471249945E-2,2.547875047E-1,3.156999946E-1
3.974236728E0,-1.471249945E-2,1.845249981E-1,3.156999946E-1
3.976770496E0,-1.154999994E-2,1.068374962E-1,3.156999946E-1
3.979304036E0,-9.349999949E-3,3.657500073E-2,3.199625015E-1
3.981837650E0,-1.471249945E-2,-2.516249940E-2,3.359124959E-1
3.984371400E0,-2.323750034E-2,-7.411249727E-2,3.540624976E-1
3.986905017E0,-3.382499889E-2,-1.123374999E-1,3.785375059E-1
3.989438556E0,-4.771250114E-2,-1.421750039E-1,4.093374908E-1
3.991972323E0,-6.256250292E-2,-1.538625062E-1,4.423374832E-1
3.994505959E0,-7.424999774E-2,-1.560624987E-1,4.710749984E-1
3.997039498E0,-8.071249723E-2,-1.495999992E-1,5.009124875E-1
3.999573265E0,-8.387500048E-2,-1.219625026E-1,5.339124799E-1
4.002106882E0,-8.813749999E-2,-9.748750180E-2,5.637499690E-1
4.004640659E0,-9.350000322E-2,-7.617499679E-2,5.891875029E-1
4.007174199E0,-9.872499853E-2,-5.596249923E-2,6.073374748E-1
4.009707738E0,-1.040875018E-1,-4.221250117E-2,6.232874990E-1
4.012241351E0,-1.094499975E-1,-3.464999795E-2,6.318125129E-1
4.014775120E0,-1.083500013E-1,-4.001250118E-2,6.264500022E-1
4.017308738E0,-9.872499853E-2,-5.912499875E-2,6.169624925E-1
4.019842276E0,-8.923749626E-2,-8.786249906E-2,6.062374711E-1
4.022376043E0,-8.277499676E-2,-1.187999994E-1,5.967500210E-1
4.024909690E0,-6.572499871E-2,-1.560624987E-1,5.828624964E-1
4.027443228E0,-4.235000163E-2,-1.975875050E-1,5.637499690E-1
4.029976995E0,-2.103750035E-2,-2.496999949E-1,5.370749831E-1
4.032510613E0,-4.124999978E-3,-2.954874933E-1,5.157625079E-1
4.035044390E0,8.662499487E-3,-3.199625015E-1,5.040749907E-1
4.037577930E0,1.512499992E-2,-3.220250010E-1,4.923875034E-1
4.040111544E0,7.699999958E-3,-3.305499852E-1,4.827624857E-1
4.042645084E0,-4.124999978E-3,-3.359124959E-1,4.647499919E-1
4.045178866E0,-1.044999994E-2,-3.444375098E-1,4.413749874E-1
4.047712483E0,-1.897500083E-2,-3.570874929E-1,4.200625122E-1
4.050246021E0,-3.698749840E-2,-3.795000017E-1,4.093374908E-1
4.052779789E0,-5.733750015E-2,-3.986124992E-1,4.178625047E-1
4.055313401E0,-8.071249723E-2,-4.124999940E-1,4.338124990E-1
4.057847168E0,-1.062875018E-1,-4.082374871E-1,4.487999976E-1
4.060380709E0,-1.264999956E-1,-4.071374834E-1,4.530625045E-1
4.062914322E0,-1.424500048E-1,-4.060375094E-1,4.456374943E-1
4.065448120E0,-1.541374922E-1,-3.954499960E-1,4.317499995E-1
4.067981661E0,-1.626625061E-1,-3.954499960E-1,4.189625084E-1
4.070515274E0,-1.658249944E-1,-4.050749838E-1,4.072749913E-1
4.073048815E0,-1.669249982E-1,-4.113999903E-1,4.008125067E-1
4.075582577E0,-1.658249944E-1,-4.199250042E-1,4.041124880E-1
4.078116194E0,-1.669249982E-1,-4.188250005E-1,4.135999978E-1
4.080649733E0,-1.700875014E-1,-4.102999866E-1,4.360125065E-1
4.083183500E0,-1.764124930E-1,-3.954499960E-1,4.519625008E-1
4.085717117E0,-1.806750000E-1,-3.709749877E-1,4.647499919E-1
4.088250885E0,-1.913999915E-1,-3.433375061E-1,4.775374830E-1
4.090784425E0,-1.999250054E-1,-3.092375100E-1,4.860624969E-1
4.093318038E0,-1.999250054E-1,-2.634499967E-1,4.923875034E-1
4.095851818E0,-1.999250054E-1,-2.092749923E-1,4.998124838E-1
4.098385358E0,-2.041874975E-1,-1.549624950E-1,5.062749982E-1
4.100918972E0,-2.041874975E-1,-9.006249905E-2,5.115000010E-1
4.103452512E0,-2.030874938E-1,-3.038750030E-2,5.157625079E-1
4.105986263E0,-1.999250054E-1,2.708750032E-2,5.168625116E-1
4.108519881E0,-1.956624985E-1,8.552499861E-2,5.179625154E-1
4.111053648E0,-1.988250017E-1,1.387374997E-1,5.242875218E-1
4.113587188E0,-2.030874938E-1,1.771000028E-1,5.328124762E-1
4.116120737E0,-2.105125040E-1,2.111999989E-1,5.435374975E-1
4.118654581E0,-2.051499933E-1,2.622124851E-1,5.541250110E-1
4.121188121E0,-1.966249943E-1,3.430624902E-1,5.637499690E-1
4.123721737E0,-2.030874938E-1,3.814249933E-1,5.689749718E-1
4.126255275E0,-2.105125040E-1,3.994374871E-1,5.765374899E-1
4.128789043E0,-2.084500045E-1,4.218499959E-1,5.817624927E-1
4.131322660E0,-1.966249943E-1,4.452250004E-1,5.882250071E-1
4.133856198E0,-1.849374920E-1,4.602124989E-1,6.010124683E-1
4.136389966E0,-1.786125004E-1,4.728625119E-1,6.169624925E-1
4.138923583E0,-1.721500009E-1,4.932124913E-1,6.286500096E-1
4.141457350E0,-1.647250056E-1,5.165874958E-1,6.349750161E-1
4.143990891E0,-1.615625024E-1,5.399624705E-1,6.275500059E-1
4.146524538E0,-1.519374996E-1,5.612750053E-1,6.147624850E-1
4.149058307E0,-1.467124969E-1,5.750250220E-1,5.934500098E-1
4.151591848E0,-1.391499937E-1,5.825874805E-1,5.647125244E-1
4.154125461E0,-1.328250021E-1,5.868499875E-1,5.370749831E-1
4.156658992E0,-1.243000031E-1,5.857499838E-1,5.040749907E-1
4.159192759E0,-1.137124971E-1,5.718625188E-1,4.668124914E-1
4.161726376E0,-1.020250022E-1,5.484874845E-1,4.263874888E-1
4.164259915E0,-9.019999951E-2,5.186499953E-1,3.838999867E-1
4.166793653E0,-8.071249723E-2,4.804250002E-1,3.455374837E-1
4.169327270E0,-7.108750194E-2,4.377999902E-1,3.040125072E-1
4.171861038E0,-6.476250291E-2,3.931125104E-1,2.657875121E-1
4.174394578E0,-6.366249919E-2,3.462249935E-1,2.359499931E-1
4.176928188E0,-5.939999968E-2,2.972750068E-1,2.177999914E-1
4.179461957E0,-6.998749822E-2,2.568500042E-1,2.083124965E-1
4.181995497E0,-8.593750000E-2,2.260500044E-1,1.838375032E-1
4.184529111E0,-1.040875018E-1,1.887875050E-1,1.508374959E-1
4.187062622E0,-1.254000068E-1,1.504250020E-1,1.050499976E-1
4.189596389E0,-1.445125043E-1,1.216875017E-1,5.719999969E-2
4.192130007E0,-1.552374959E-1,9.831249714E-2,8.249999955E-3
4.194663774E0,-1.572999954E-1,7.067500055E-2,-3.547500074E-2
4.197197318E0,-1.476749927E-1,2.708750032E-2,-8.332499862E-2
4.199730932E0,-1.391499937E-1,-2.089999989E-2,-1.194875017E-1
4.202264472E0,-1.381874979E-1,-6.448750198E-2,-1.461624950E-1
4.204798240E0,-1.434125006E-1,-9.542500228E-2,-1.621125042E-1
4.207331886E0,-1.243000031E-1,-1.358499974E-1,-1.695374995E-1
4.209865653E0,-1.094499975E-1,-1.772374958E-1,-1.843875051E-1
4.212399194E0,-9.982500225E-2,-2.028124928E-1,-1.886499971E-1
4.214932807E0,-8.497499675E-2,-2.347124964E-1,-1.876875013E-1
4.217466371E0,-7.218749821E-2,-2.730749846E-1,-1.897500008E-1
4.220000139E0,-5.733750015E-2,-3.038749993E-1,-1.951124966E-1
4.222533756E0,-4.124999791E-2,-3.284874856E-1,-2.079000026E-1
4.225067523E0,-2.859999985E-2,-3.518624902E-1,-2.205500007E-1
4.227601050E0,-1.471249945E-2,-3.667125106E-1,-2.344374955E-1
4.230134663E0,-5.087499972E-3,-3.774375021E-1,-2.492875010E-1
4.232668204E0,5.499999970E-3,-3.869250119E-1,-2.653749883E-1
4.235201971E0,8.662499487E-3,-3.900874853E-1,-2.833875120E-1
4.237735602E0,1.622499898E-2,-3.848625124E-1,-3.036000133E-1
4.240269141E0,2.254999988E-2,-3.752374947E-1,-3.227125108E-1
4.242802908E0,2.034999989E-2,-3.933874965E-1,-3.238124847E-1
4.245336525E0,1.828750037E-2,-3.986124992E-1,-3.227125108E-1
4.247870079E0,1.512499992E-2,-3.783999979E-1,-3.206500113E-1
4.250403846E0,9.762499481E-3,-3.613499999E-1,-3.143250048E-1
4.252937463E0,6.599999964E-3,-3.539249897E-1,-3.100624979E-1
4.255471231E0,4.399999976E-3,-3.368749917E-1,-3.100624979E-1
4.258004766E0,1.237499993E-3,-3.145999908E-1,-3.089624941E-1
4.260538380E0,1.196249947E-2,-3.018124998E-1,-3.078624904E-1
4.263072149E0,4.482499883E-2,-3.188624978E-1,-2.982375026E-1
4.265605689E0,6.517499685E-2,-3.550249934E-1,-2.908124924E-1
4.268139303E0,6.723749638E-2,-3.752374947E-1,-2.887499928E-1
4.270672843E0,6.297499686E-2,-3.922874928E-1,-2.813250124E-1
4.273206610E0,6.723749638E-2,-4.135999978E-1,-2.748624980E-1
4.275740228E0,7.150000334E-2,-4.273499846E-1,-2.780250013E-1
4.278273751E0,7.466249913E-2,-4.551250041E-1,-2.876499891E-1
4.280807595E0,7.356250286E-2,-4.933499992E-1,-2.950749993E-1
4.283341136E0,7.150000334E-2,-5.200250149E-1,-2.941125035E-1
4.285874903E0,7.039999962E-2,-5.454624891E-1,-2.919124961E-1
4.288408449E0,6.833750010E-2,-5.721374750E-1,-2.930124998E-1
4.290942062E0,6.723749638E-2,-5.944125056E-1,-2.865499854E-1
4.293475831E0,6.833750010E-2,-6.136624813E-1,-2.876499891E-1
4.296009367E0,6.723749638E-2,-6.370375156E-1,-2.887499928E-1
4.298542977E0,6.407500058E-2,-6.572499871E-1,-2.876499891E-1
4.301076586E0,5.555000156E-2,-6.743000150E-1,-2.844874859E-1
4.303610288E0,4.276249930E-2,-6.828249693E-1,-2.780250013E-1
4.306143905E0,2.791249938E-2,-6.817250252E-1,-2.653749883E-1
4.308677444E0,1.402499992E-2,-6.754000187E-1,-2.429624945E-1
4.311211288E0,-8.249999955E-4,-6.615124941E-1,-1.812250018E-1
4.313744809E0,-2.323750034E-2,-6.125624776E-1,-1.333750039E-1
4.316278576E0,-2.859999985E-2,-5.508249998E-1,-1.706375033E-1
4.318812117E0,-2.007500082E-2,-5.328124762E-1,-2.014375031E-1
4.321345730E0,-9.349999949E-3,-5.061374903E-1,-2.164250016E-1
4.323879500E0,-1.251249947E-2,-4.848249853E-1,-2.578125000E-1
4.326413040E0,-7.287499961E-3,-4.731374979E-1,-3.025000095E-1
4.328946653E0,1.237499993E-3,-4.677749872E-1,-3.004375100E-1
4.331480194E0,6.599999964E-3,-4.475624859E-1,-2.653749883E-1
4.334014043E0,1.086249948E-2,-4.060375094E-1,-2.238499969E-1
4.336547584E0,1.718750037E-2,-3.646500111E-1,-1.897500008E-1
4.339081351E0,2.364999987E-2,-3.359124959E-1,-1.556500047E-1
4.341614968E0,2.681249939E-2,-2.997500002E-1,-9.611249715E-2
4.344148511E0,2.887500077E-2,-2.432374954E-1,-1.439625025E-1
4.346682278E0,4.482499883E-2,-2.326499969E-1,-2.418625057E-1
4.349215818E0,6.723749638E-2,-2.591874897E-1,-2.993375063E-1
4.351749432E0,8.428750187E-2,-2.677125037E-1,-2.941125035E-1
4.354283235E0,8.964999765E-2,-2.624875009E-1,-2.450249940E-1
4.356816775E0,8.635000139E-2,-2.549250126E-1,-1.823250055E-1
4.359350389E0,7.259999961E-2,-2.571249902E-1,-1.396999955E-1
4.361884158E0,5.664999783E-2,-2.656500041E-1,-1.057374999E-1
4.364417761E0,4.276249930E-2,-2.688125074E-1,-8.442500234E-2
4.366951300E0,3.849999979E-2,-2.677125037E-1,-1.003749967E-1
4.369485067E0,3.217500076E-2,-2.730749846E-1,-1.035374999E-1
4.372018685E0,2.364999987E-2,-2.752749920E-1,-7.053750008E-2
4.374552213E0,8.662499487E-3,-2.699125111E-1,-6.737499963E-3
4.377085980E0,-1.677500084E-2,-2.624875009E-1,6.668750197E-2
4.379619521E0,-4.661250114E-2,-2.465374917E-1,1.699499935E-1
4.382153134E0,-7.961250097E-2,-1.857624948E-1,1.614249945E-1
4.384686903E0,-8.497499675E-2,-1.336500049E-1,5.926249921E-2
4.387220444E0,-6.902500242E-2,-1.443749964E-1,-1.374999993E-3
4.389754057E0,-6.998749822E-2,-1.518000066E-1,1.567500085E-2
4.392287826E0,-9.556250274E-2,-1.060125008E-1,4.221250117E-2
4.394821444E0,-1.359875053E-1,-9.432499856E-2,5.719999969E-2
4.397354982E0,-1.552374959E-1,-9.638749808E-2,1.104125008E-1
4.399888750E0,-1.806750000E-1,-9.638749808E-2,3.477374911E-1
4.402422367E0,-2.105125040E-1,4.509999976E-2,5.031124949E-1
4.404955881E0,-2.275625020E-1,1.706375033E-1,4.955500066E-1
4.407489649E0,-2.275625020E-1,1.451999992E-1,4.701125026E-1
4.410023189E0,-2.296250015E-1,1.398375034E-1,5.658124685E-1
4.412556802E0,-2.371875048E-1,2.473624945E-1,5.828624964E-1
4.415090562E0,-2.403499931E-1,2.675749958E-1,4.050749838E-1
4.417624102E0,-2.275625020E-1,2.111999989E-1,4.093374908E-1
4.420157716E0,-2.168374956E-1,2.536875010E-1,5.200250149E-1
4.422691485E0,-2.338874936E-1,3.196874857E-1,4.838624895E-1
4.425225011E0,-2.211000025E-1,2.941125035E-1,2.422749996E-1
4.427758625E0,-1.839749962E-1,2.590500116E-1,5.816249922E-2
4.430292394E0,-1.456124932E-1,2.195875049E-1,-7.837500423E-3
4.432826011E0,-1.104125008E-1,2.058375031E-1,-2.804999985E-2
4.435359565E0,-7.755000144E-2,1.887875050E-1,-2.158750035E-2
4.437893332E0,-5.197500065E-2,1.632124931E-1,-1.209999993E-2
4.440426949E0,-3.176249936E-2,1.461624950E-1,-1.374999993E-3
4.442960488E0,-1.897500083E-2,1.281500012E-1,-6.737499963E-3
4.445494255E0,-8.249999955E-3,8.978749812E-2,-3.327500075E-2
4.448027872E0,2.034999989E-2,4.509999976E-2,-3.753750026E-2
4.450561640E0,5.499999970E-3,1.512499992E-3,3.561249971E-1
4.453095180E0,-5.513750017E-2,7.809999585E-2,5.094375014E-1
4.455628794E0,-7.108750194E-2,1.557874978E-1,1.093124971E-1
4.458162563E0,-4.455000162E-2,-3.575000167E-2,-2.238499969E-1
4.460696103E0,-1.044999994E-2,-2.017125040E-1,-3.408625126E-1
4.463229717E0,1.086249948E-2,-2.858625054E-1,-3.334375024E-1
4.465763267E0,2.364999987E-2,-3.496625125E-1,-2.387000024E-1
4.468297034E0,8.662499487E-3,-4.295499921E-1,-1.067000031E-1
4.470830652E0,-9.349999949E-3,-4.998124838E-1,-5.348749831E-2
4.473364419E0,-8.249999955E-4,-5.604500175E-1,-6.104999781E-2
4.475897949E0,2.144999988E-2,-6.179249883E-1,-6.421250105E-2
4.478431563E0,4.482499883E-2,-6.498249769E-1,1.251249947E-2
4.480965332E0,5.444999784E-2,-6.476249695E-1,1.667875051E-1
4.483498873E0,4.276249930E-2,-6.104999781E-1,2.838000059E-1
4.486032491E0,-9.349999949E-3,-6.051374674E-1,5.137000084E-1
4.488566260E0,-2.007500082E-2,-5.402374864E-1,4.934875071E-1
4.491099801E0,-1.154999994E-2,-4.890874922E-1,3.497999907E-1
4.493633414E0,-1.361249946E-2,-5.103999972E-1,2.891624868E-1
4.496166940E0,-2.103750035E-2,-5.029749870E-1,2.700499892E-1
4.498700784E0,-1.677500084E-2,-5.050374866E-1,2.817375064E-1
4.501234324E0,-2.213750035E-2,-5.337749720E-1,3.338499963E-1
4.503768091E0,-3.918749839E-2,-5.497249961E-1,4.008125067E-1
4.506301623E0,-5.087500066E-2,-5.487625003E-1,4.551250041E-1
4.508835236E0,-5.623750016E-2,-5.433999896E-1,4.881249964E-1
4.511369005E0,-5.513750017E-2,-5.231875181E-1,5.020124912E-1
4.513902546E0,-5.307500064E-2,-4.955500066E-1,5.126000047E-1
4.516436144E0,-4.344999790E-2,-4.592500031E-1,5.157625079E-1
4.518969914E0,-3.382499889E-2,-4.210250080E-1,5.242875218E-1
4.521503454E0,-1.677500084E-2,-4.188250005E-1,5.455999970E-1
4.524037067E0,2.337499987E-3,-4.178625047E-1,5.711749792E-1
4.526570613E0,1.196249947E-2,-3.678124845E-1,5.583875179E-1
4.529104457E0,1.086249948E-2,-3.049750030E-1,5.296499729E-1
4.531637998E0,1.196249947E-2,-2.773374915E-1,5.115000010E-1
4.534171765E0,8.662499487E-3,-2.752749920E-1,4.849624932E-1
4.536705368E0,7.699999958E-3,-2.997500002E-1,4.499000013E-1
4.539238907E0,1.374999993E-4,-3.379749954E-1,3.998500109E-1
4.541772674E0,1.374999993E-4,-3.774375021E-1,3.540624976E-1
4.544306214E0,2.337499987E-3,-4.050749838E-1,3.082749844E-1
4.546839823E0,1.237499993E-3,-4.273499846E-1,2.615250051E-1
4.549373592E0,4.399999976E-3,-4.369750023E-1,2.050125003E-1
4.551907132E0,9.762499481E-3,-4.401375055E-1,1.475374997E-1
4.554440746E0,7.699999958E-3,-4.433000088E-1,1.018875018E-1
4.556974548E0,-1.924999990E-3,-4.241875112E-1,6.778749824E-2
4.559508089E0,-1.154999994E-2,-3.997125030E-1,4.221250117E-2
4.562041702E0,-2.323750034E-2,-3.911874890E-1,3.162499890E-2
4.564575471E0,-3.698749840E-2,-3.922874928E-1,3.795000166E-2
4.567109104E0,-4.771250114E-2,-3.954499960E-1,5.926249921E-2
4.569642642E0,-5.623750016E-2,-4.039750099E-1,9.116250277E-2
4.572176409E0,-7.328750193E-2,-4.124999940E-1,1.263625026E-1
4.574709950E0,-9.350000322E-2,-4.071374834E-1,1.636250019E-1
4.577243572E0,-1.157749966E-1,-3.900874853E-1,2.072124928E-1
4.579777341E0,-1.456124932E-1,-3.603875041E-1,2.454375029E-1
4.582310882E0,-1.689874977E-1,-3.177624941E-1,2.849000096E-1
4.584844726E0,-1.966249943E-1,-2.645500004E-1,3.156999946E-1
4.587378276E0,-2.243999988E-1,-2.050125003E-1,3.412750065E-1
4.589911815E0,-2.540999949E-1,-1.379124969E-1,3.636874855E-1
4.592445428E0,-2.850374877E-1,-6.764999777E-2,3.838999867E-1
4.594979198E0,-3.084124923E-1,-4.949999973E-3,4.147000015E-1
4.597512785E0,-3.328875005E-1,6.104999781E-2,4.456374943E-1
4.600046323E0,-3.488374949E-1,1.227874979E-1,4.838624895E-1
4.602580091E0,-3.638249934E-1,1.685750037E-1,5.168625116E-1
4.605113708E0,-3.701499999E-1,2.026749998E-1,5.424374938E-1
4.607647256E0,-3.627249897E-1,2.525874972E-1,5.806624889E-1
4.610181024E0,-3.562625051E-1,3.015374839E-1,6.212249994E-1
4.612714641E0,-3.488374949E-1,3.419624865E-1,6.605499983E-1
4.615248408E0,-3.371500075E-1,3.718000054E-1,6.913499832E-1
4.617781954E0,-3.254624903E-1,4.016374946E-1,7.222874761E-1
4.620315567E0,-3.169375062E-1,4.324375093E-1,7.445625067E-1
4.622849336E0,-3.073124886E-1,4.665375054E-1,7.488250136E-1
4.625382877E0,-2.861374915E-1,5.197499990E-1,7.402999997E-1
4.627916499E0,-2.648249865E-1,5.750250220E-1,7.254499793E-1
4.630450040E0,-2.540999949E-1,6.198499799E-1,7.106000185E-1
4.632983807E0,-2.455749959E-1,6.645374894E-1,6.978124976E-1
4.635517424E0,-2.371875048E-1,7.038624883E-1,6.924499869E-1
4.638051197E0,-2.275625020E-1,7.251750231E-1,6.881874800E-1
4.640584737E0,-2.127124965E-1,7.496500015E-1,6.829624772E-1
4.643118350E0,-2.094125003E-1,7.730249763E-1,6.776000261E-1
4.645652120E0,-2.158749998E-1,7.826499939E-1,6.626124978E-1
4.648185645E0,-2.264624983E-1,7.783874869E-1,6.307125092E-1
4.650719259E0,-2.413125038E-1,7.709624767E-1,5.871250033E-1
4.653253028E0,-2.520374954E-1,7.539125085E-1,5.264874697E-1
4.655786568E0,-2.583625019E-1,7.144500017E-1,4.456374943E-1
4.658320192E0,-2.509374917E-1,6.676999927E-1,3.518624902E-1
4.660853961E0,-2.371875048E-1,6.102250218E-1,2.561624944E-1
4.663387501E0,-2.232999951E-1,5.538499951E-1,1.699499935E-1
4.665921115E0,-2.073500007E-1,4.984374940E-1,1.028499976E-1
4.668454665E0,-2.019875050E-1,4.452250004E-1,5.816249922E-2
4.670988509E0,-2.008875012E-1,3.845874965E-1,1.251249947E-2
4.673522050E0,-1.999250054E-1,3.282124996E-1,-2.378750034E-2
4.676055817E0,-1.934625059E-1,3.068999946E-1,-4.399999976E-2
4.678589358E0,-1.860374957E-1,3.133625090E-1,-4.179999977E-2
4.681122971E0,-1.817750037E-1,3.313750029E-1,-2.804999985E-2
4.683656740E0,-1.797125041E-1,3.643749952E-1,-2.474999987E-3
4.686190281E0,-1.806750000E-1,4.070000052E-1,2.309999987E-2
4.688723874E0,-1.817750037E-1,4.537499845E-1,5.609999970E-2
4.691257643E0,-1.839749962E-1,5.069624782E-1,8.057499677E-2
4.693791184E0,-1.860374957E-1,5.581125021E-1,8.689999580E-2
4.696324797E0,-1.775124967E-1,6.070625186E-1,9.006249905E-2
4.698858576E0,-1.561999917E-1,6.474875212E-1,8.373750001E-2
4.701392194E0,-1.243000031E-1,6.665999889E-1,5.719999969E-2
4.703925732E0,-8.181250095E-2,6.569749713E-1,2.309999987E-2
4.706459499E0,-3.492499888E-2,6.304374933E-1,-7.837500423E-3
4.708993117E0,1.237499993E-3,5.761250257E-1,-4.606249928E-2
4.711526655E0,3.849999979E-2,4.984374940E-1,-9.075000137E-2
4.714060423E0,8.428750187E-2,4.261125028E-1,-1.120624989E-1
4.716593963E0,1.236125007E-1,3.643749952E-1,-1.322750002E-1
4.719127566E0,1.555124968E-1,3.037374914E-1,-1.524875015E-1
4.721661336E0,1.832875013E-1,2.419999987E-1,-1.758625060E-1
4.724194876E0,2.120250016E-1,1.973125041E-1,-1.982749999E-1
4.726728720E0,2.311374992E-1,1.557874978E-1,-2.205500007E-1
4.729262266E0,2.470874935E-1,1.131625026E-1,-2.418625057E-1
4.731795881E0,2.652375102E-1,8.772499859E-2,-2.685374916E-1
4.734329420E0,2.821500003E-1,7.067500055E-2,-2.993375063E-1
4.736863187E0,2.886124849E-1,4.936249927E-2,-3.291749954E-1
4.739396794E0,2.971374989E-1,3.135000169E-2,-3.590124846E-1
4.741930333E0,2.982375026E-1,1.209999993E-2,-3.823874891E-1
4.744464100E0,2.854500115E-1,-1.979999989E-2,-3.962749839E-1
4.746997717E0,2.662000060E-1,-6.338749826E-2,-4.005374908E-1
4.749531252E0,2.524499893E-1,-1.071124971E-1,-4.036999941E-1
4.752065019E0,2.331999987E-1,-1.655499935E-1,-4.068624973E-1
4.754598636E0,2.172500044E-1,-2.272875011E-1,-4.079625010E-1
4.757132404E0,2.077624947E-1,-2.836624980E-1,-4.057624936E-1
4.759665953E0,2.012999952E-1,-3.422375023E-1,-4.079625010E-1
4.762199567E0,1.938749999E-1,-4.028750062E-1,-4.122250080E-1
4.764733336E0,1.821874976E-1,-4.731374979E-1,-4.131875038E-1
4.767266876E0,1.662375033E-1,-5.411999822E-1,-4.122250080E-1
4.769800480E0,1.523499936E-1,-5.977125168E-1,-4.046624899E-1
4.772334249E0,1.278750002E-1,-6.529874802E-1,-4.142875075E-1
4.774867789E0,1.044999957E-1,-7.210500240E-1,-4.334000051E-1
4.777401403E0,9.171249717E-2,-7.892500162E-1,-4.430249929E-1
4.779935163E0,8.855000138E-2,-8.530499935E-1,-4.494875073E-1
4.782468703E0,1.033999994E-1,-9.222124815E-1,-4.589749873E-1
4.785002317E0,1.130250022E-1,-1.008424997E0,-4.663999975E-1
4.787536086E0,1.130250022E-1,-1.087212443E0,-4.654375017E-1
4.790069703E0,1.065625027E-1,-1.154175043E0,-4.697000086E-1
4.792603242E0,9.597499669E-2,-1.221274972E0,-4.706625044E-1
4.795137009E0,8.964999765E-2,-1.284112453E0,-4.654375017E-1
4.797670550E0,8.208750188E-2,-1.341587543E0,-4.494875073E-1
4.800204158E0,7.150000334E-2,-1.376649976E0,-4.100250006E-1
4.802737927E0,6.091250107E-2,-1.399062514E0,-3.547500074E-1
4.805271468E0,5.555000156E-2,-1.421337485E0,-3.046999872E-1
4.807805081E0,5.444999784E-2,-1.432062507E0,-2.578125000E-1
4.810338845E0,4.812499881E-2,-1.422437549E0,-2.121624947E-1
4.812872386E0,3.643750027E-2,-1.397962451E0,-1.769624949E-1
4.815405999E0,2.034999989E-2,-1.349012494E0,-1.567499936E-1
4.817939768E0,-6.187499966E-3,-1.280949950E0,-1.471250057E-1
4.820473405E0,-2.749999985E-2,-1.204224944E0,-1.419000030E-1
4.823006943E0,-4.028749838E-2,-1.124475002E0,-1.311749965E-1
4.825540711E0,-5.307500064E-2,-1.037162542E0,-1.269125044E-1
4.828074328E0,-6.049999967E-2,-9.626374841E-1,-1.354375035E-1
4.830608095E0,-5.623750016E-2,-9.147874713E-1,-1.524875015E-1
4.833141636E0,-5.403750017E-2,-8.711999655E-1,-1.652749926E-1
4.835675249E0,-6.049999967E-2,-8.189499974E-1,-1.737999916E-1
4.838208789E0,-7.535000145E-2,-7.742624879E-1,-1.834249943E-1
4.840742567E0,-9.872499853E-2,-7.434625030E-1,-1.801249981E-1
4.843276184E0,-1.189374998E-1,-6.902499795E-1,-1.727000028E-1
4.845809951E0,-1.317249984E-1,-6.359375119E-1,-1.641750038E-1
4.848343492E0,-1.445125043E-1,-6.082999706E-1,-1.652749926E-1
4.850877148E0,-1.552374959E-1,-5.849249959E-1,-1.674750000E-1
4.853410689E0,-1.775124967E-1,-5.454624891E-1,-1.504250020E-1
4.855944456E0,-1.977249980E-1,-4.816625118E-1,-1.046374962E-1
4.858478073E0,-2.158749998E-1,-4.050749838E-1,-3.657500073E-2
4.861011841E0,-2.190375030E-1,-3.337124884E-1,2.419999987E-2
4.863545381E0,-2.211000025E-1,-2.475000024E-1,6.888750196E-2
4.866078994E0,-2.424124926E-1,-1.390125006E-1,9.542500228E-2
4.868612535E0,-2.785750031E-1,-2.186249942E-2,1.071124971E-1
4.871146283E0,-3.126749992E-1,9.515000135E-2,1.135749966E-1
4.873679901E0,-3.393499851E-1,2.004749924E-1,1.209999993E-1
4.876213668E0,-3.477374911E-1,2.920500040E-1,1.156374961E-1
4.878747208E0,-3.467749953E-1,3.749625087E-1,1.071124971E-1
4.881280827E0,-3.393499851E-1,4.420624971E-1,1.018875018E-1
4.883814596E0,-3.308250010E-1,4.995374978E-1,1.082125008E-1
4.886348136E0,-3.360500038E-1,5.505499840E-1,1.104125008E-1
4.888881750E0,-3.414124846E-1,5.963374972E-1,1.135749966E-1
4.891415523E0,-3.477374911E-1,6.410250068E-1,1.028499976E-1
4.893949140E0,-3.542000055E-1,6.793875098E-1,8.483749628E-2
4.896482679E0,-3.573625088E-1,7.112874985E-1,6.668750197E-2
4.899016446E0,-3.553000093E-1,7.368624806E-1,4.867500067E-2
4.901550073E0,-3.499374986E-1,7.581750154E-1,3.162499890E-2
4.904083612E0,-3.499374986E-1,7.719249725E-1,1.773750037E-2
4.906617379E0,-3.477374911E-1,7.804499865E-1,1.031249948E-2
4.909150920E0,-3.467749953E-1,7.836124897E-1,4.949999973E-3
4.911684538E0,-3.414124846E-1,7.804499865E-1,-2.749999985E-4
4.914218307E0,-3.339875042E-1,7.772874832E-1,2.887499984E-3
4.916751848E0,-3.254624903E-1,7.719249725E-1,1.031249948E-2
4.919285692E0,-3.222999871E-1,7.645000219E-1,1.883750036E-2
4.921819236E0,-3.212000132E-1,7.539125085E-1,2.626249939E-2
4.924352852E0,-3.222999871E-1,7.453874946E-1,3.588749841E-2
4.926886619E0,-3.222999871E-1,7.303999662E-1,4.647500068E-2
4.929420159E0,-3.148750067E-1,7.092249990E-1,4.867500067E-2
4.931953798E0,-2.956250012E-1,6.953374743E-1,5.183750018E-2
4.934487338E0,-2.765125036E-1,6.793875098E-1,6.242499873E-2
4.937021106E0,-2.616625130E-1,6.645374894E-1,7.837499678E-2
4.939554723E0,-2.551999986E-1,6.569749713E-1,9.652499855E-2
4.942088246E0,-2.509374917E-1,6.580749750E-1,1.263625026E-1
4.944622014E0,-2.509374917E-1,6.687999964E-1,1.614249945E-1
4.947155631E0,-2.551999986E-1,6.879125237E-1,2.072124928E-1
4.949689398E0,-2.583625019E-1,7.251750231E-1,2.518999875E-1
4.952222939E0,-2.616625130E-1,7.752249837E-1,2.923249900E-1
4.954756552E0,-2.583625019E-1,8.273375034E-1,3.242250085E-1
4.957290321E0,-2.583625019E-1,8.783500195E-1,3.444375098E-1
4.959823862E0,-2.531374991E-1,9.315624833E-1,3.583250046E-1
4.962357475E0,-2.424124926E-1,9.762499928E-1,3.594250083E-1
4.964891244E0,-2.318249941E-1,1.009250045E0,3.572250009E-1
4.967424785E0,-2.158749998E-1,1.029462457E0,3.455374837E-1
4.969958398E0,-2.008875012E-1,1.040187478E0,3.338499963E-1
4.972492173E0,-1.891999990E-1,1.041149974E0,3.231250048E-1
4.975025713E0,-1.743499935E-1,1.032762527E0,3.104749918E-1
4.977559326E0,-1.552374959E-1,1.015712500E0,2.923249900E-1
4.980093096E0,-1.317249984E-1,1.000725031E0,2.741749883E-1
4.982626698E0,-1.104125008E-1,9.784500003E-1,2.496999949E-1
4.985160236E0,-8.813749999E-2,9.465500116E-1,2.168374956E-1
4.987694004E0,-7.218749821E-2,9.070875049E-1,1.795749962E-1
4.990227544E0,-5.939999968E-2,8.783500195E-1,1.497374922E-1
4.992761139E0,-5.307500064E-2,8.571749926E-1,1.273249984E-1
4.995294908E0,-4.771250114E-2,8.294000030E-1,1.082125008E-1
4.997828448E0,-4.028749838E-2,7.836124897E-1,9.006249905E-2
5.000362062E0,-2.007500082E-2,7.453874946E-1,6.146249920E-2
5.002895817E0,2.571249940E-2,6.964374781E-1,3.162499890E-2
5.005429357E0,7.259999961E-2,5.996375084E-1,6.874999963E-4
5.007962971E0,1.204499975E-1,4.952749908E-1,-1.209999993E-2
5.010496740E0,1.630750000E-1,3.910500109E-1,-1.416249946E-2
5.013030338E0,1.907124966E-1,2.909500003E-1,-9.899999946E-3
5.015563877E0,2.066625059E-1,2.058375031E-1,8.249999955E-3
5.018097644E0,2.183499932E-1,1.249874979E-1,3.904999793E-2
5.020631261E0,2.450249940E-1,5.046249926E-2,8.910000324E-2
5.023164795E0,2.854500115E-1,-8.112499490E-3,1.582625061E-1
5.025698562E0,3.269749880E-1,-3.795000166E-2,2.337500006E-1
5.028232180E0,3.620375097E-1,-5.389999971E-2,3.104749918E-1
5.030765718E0,3.854124844E-1,-5.279999971E-2,3.827999830E-1
5.033299499E0,3.993000090E-1,-1.979999989E-2,4.487999976E-1
5.035833117E0,3.918749988E-1,3.341250122E-2,5.105375051E-1
5.038366884E0,3.759250045E-1,9.831249714E-2,5.669124722E-1
5.040900424E0,3.566749990E-1,1.706375033E-1,6.169624925E-1
5.043434029E0,3.321999907E-1,2.579500079E-1,6.616500020E-1
