"Time (s)","Acceleration x (m/s^2)","Acceleration y (m/s^2)","Acceleration z (m/s^2)"
3.807113300E-2,-9.249000549E0,1.617000103E0,1.321950078E0
4.060220800E-2,-9.361950874E0,1.608000040E0,1.344000101E0
4.313582300E-2,-9.369000435E0,1.660050035E0,1.351050019E0
4.566936200E-2,-9.403050423E0,1.665000081E0,1.375050068E0
4.820312600E-2,-9.400050163E0,1.653000116E0,1.399050117E0
5.073674100E-2,-9.385950089E0,1.645950079E0,1.396950126E0
5.327051000E-2,-9.415050507E0,1.651050091E0,1.429950118E0
5.580412600E-2,-9.397950172E0,1.645950079E0,1.389000058E0
5.833768600E-2,-9.403050423E0,1.633950114E0,1.413000107E0
6.087145400E-2,-9.391050339E0,1.653000116E0,1.417950034E0
6.340507100E-2,-9.417000771E0,1.609950066E0,1.329000115E0
6.593860900E-2,-9.418950081E0,1.612950087E0,1.336950064E0
6.847238600E-2,-9.481950760E0,1.612950087E0,1.375050068E0
7.100600300E-2,-9.558000565E0,1.564950109E0,1.384950042E0
7.353977000E-2,-9.589950562E0,1.591050029E0,1.363050103E0
7.607331100E-2,-9.630000114E0,1.584000111E0,1.387050033E0
7.860690900E-2,-9.666000366E0,1.540950060E0,1.432050109E0
8.114067800E-2,-9.690000534E0,1.537950039E0,1.497000098E0
8.367421900E-2,-9.706950188E0,1.564950109E0,1.552050114E0
8.620806300E-2,-9.754950523E0,1.588950038E0,1.533000112E0
8.874158800E-2,-9.817050934E0,1.603050113E0,1.573950052E0
9.127520400E-2,-9.814950943E0,1.591050029E0,1.591050029E0
9.380897100E-2,-9.862950325E0,1.597950101E0,1.602000117E0
9.634251200E-2,-9.867000580E0,1.603050113E0,1.597950101E0
9.887613000E-2,-9.826950073E0,1.612950087E0,1.605000019E0
1.014098990E-1,-9.799950600E0,1.627050042E0,1.605000019E0
1.039434400E-1,-9.750000000E0,1.672050118E0,1.570950031E0
1.064770530E-1,-9.678000450E0,1.677000046E0,1.597950101E0
1.090108170E-1,-9.646950722E0,1.665000081E0,1.617000103E0
1.115443580E-1,-9.574950218E0,1.665000081E0,1.593000054E0
1.140782020E-1,-9.541950226E0,1.657950044E0,1.617000103E0
1.166117420E-1,-9.484050751E0,1.660050035E0,1.626000047E0
1.191453670E-1,-9.415050507E0,1.687050104E0,1.660050035E0
1.216791340E-1,-9.439050674E0,1.627050042E0,1.662000060E0
1.242126740E-1,-9.421950340E0,1.600950122E0,1.642950058E0
1.267462880E-1,-9.384000778E0,1.609950066E0,1.674000025E0
1.292800570E-1,-9.381000519E0,1.621950030E0,1.701000094E0
1.318135980E-1,-9.316950798E0,1.620000124E0,1.693050027E0
1.343472110E-1,-9.276000023E0,1.660050035E0,1.761000037E0
1.368809800E-1,-9.225000381E0,1.657950044E0,1.686000109E0
1.394145890E-1,-9.184950829E0,1.701000094E0,1.741050124E0
1.419481270E-1,-9.169950485E0,1.740000129E0,1.734000087E0
1.444818940E-1,-9.175050735E0,1.677000046E0,1.690950036E0
1.470155120E-1,-9.199050903E0,1.708050132E0,1.666950107E0
1.495492550E-1,-9.225000381E0,1.693950057E0,1.726950049E0
1.520827950E-1,-9.277950287E0,1.717950106E0,1.720050097E0
1.546164090E-1,-9.196950912E0,1.737000108E0,1.662000060E0
1.571501780E-1,-9.196950912E0,1.735050082E0,1.698000073E0
1.596836940E-1,-9.168000221E0,1.717950106E0,1.686000109E0
1.622175380E-1,-9.187050819E0,1.735050082E0,1.674000025E0
1.647510780E-1,-9.111000061E0,1.717950106E0,1.657950044E0
1.672846940E-1,-9.112950325E0,1.708050132E0,1.614000082E0
1.698182660E-1,-9.166050911E0,1.740000129E0,1.552050114E0
1.723520330E-1,-9.172950745E0,1.696050048E0,1.449000120E0
1.748856510E-1,-9.181950569E0,1.639050126E0,1.396950126E0
1.774194180E-1,-9.144000053E0,1.585950017E0,1.320000052E0
1.799529720E-1,-9.190050125E0,1.584000111E0,1.306050062E0
1.824865860E-1,-9.180000305E0,1.548000097E0,1.368000031E0
1.850203550E-1,-9.202050209E0,1.525950074E0,1.369950056E0
1.875539720E-1,-9.235050201E0,1.507050037E0,1.432050109E0
1.900875070E-1,-9.265950203E0,1.528950095E0,1.432050109E0
1.926212740E-1,-9.324000359E0,1.555050015E0,1.459050059E0
1.951548910E-1,-9.163050652E0,1.179000020E0,1.464000106E0
1.976886590E-1,-9.199050903E0,1.294050097E0,1.588050127E0
2.002221790E-1,-9.261000633E0,1.344000101E0,1.657950044E0
2.027557930E-1,-9.271050453E0,1.311000109E0,1.618950129E0
2.052895620E-1,-9.292950630E0,1.315950036E0,1.617000103E0
2.078231790E-1,-9.280950546E0,1.252950072E0,1.614000082E0
2.103567040E-1,-9.352050781E0,1.264950037E0,1.642950058E0
2.128904710E-1,-9.373950005E0,1.299000025E0,1.660050035E0
2.154240880E-1,-9.469950676E0,1.344000101E0,1.689000130E0
2.179576270E-1,-9.475050926E0,1.356000066E0,1.746000051E0
2.204913790E-1,-9.514950752E0,1.347000122E0,1.789050102E0
2.230249960E-1,-9.541950226E0,1.375050068E0,1.798950076E0
2.255587640E-1,-9.601950645E0,1.407000065E0,1.801050067E0
2.280923810E-1,-9.616050720E0,1.402050018E0,1.825050116E0
2.306259240E-1,-9.642000198E0,1.399050117E0,1.794000030E0
2.331596920E-1,-9.700050354E0,1.444950104E0,1.854000092E0
2.356933090E-1,-9.772050858E0,1.444950104E0,1.915950060E0
2.382268480E-1,-9.835950851E0,1.453950047E0,1.938000083E0
2.407606300E-1,-9.906000137E0,1.440000057E0,1.909050107E0
2.432942470E-1,-9.937050819E0,1.435050011E0,1.902000070E0
2.458277860E-1,-9.991950035E0,1.416000009E0,1.855950117E0
2.483616300E-1,-1.007295036E1,1.396950126E0,1.831950068E0
2.508951800E-1,-1.010400009E1,1.348950028E0,1.854000092E0
2.534289470E-1,-1.007295036E1,1.323000073E0,1.831950068E0
2.559625650E-1,-1.008300018E1,1.342050076E0,1.849050045E0
2.584961030E-1,-1.010400009E1,1.339950085E0,1.846950054E0
2.610298760E-1,-1.005405045E1,1.327950120E0,1.897050142E0
2.635634930E-1,-9.975000381E0,1.348950028E0,1.861050129E0
2.660970310E-1,-9.949050903E0,1.342050076E0,1.806000113E0
2.686307990E-1,-9.891000748E0,1.347000122E0,1.725000024E0
2.711644010E-1,-9.831000328E0,1.342050076E0,1.732050061E0
2.736979400E-1,-9.787950516E0,1.315950036E0,1.693050027E0
2.762317070E-1,-9.762000084E0,1.315950036E0,1.750950098E0
2.787653240E-1,-9.763950348E0,1.335000038E0,1.758000135E0
2.812990770E-1,-9.810000420E0,1.375050068E0,1.792050123E0
2.838326950E-1,-9.802950859E0,1.344000101E0,1.785000086E0
2.863662330E-1,-9.802950859E0,1.378050089E0,1.804050088E0
2.889000010E-1,-9.819000244E0,1.366050124E0,1.846950054E0
2.914336280E-1,-9.805050850E0,1.366050124E0,1.866000056E0
2.939673950E-1,-9.769050598E0,1.351950049E0,1.861050129E0
2.965009360E-1,-9.718950272E0,1.428000093E0,1.855950117E0
2.990345490E-1,-9.697050095E0,1.426050067E0,1.858950138E0
3.015683030E-1,-9.676050186E0,1.459050059E0,1.873050094E0
3.041018440E-1,-9.621000290E0,1.471050024E0,1.852050066E0
3.066354570E-1,-9.604050636E0,1.477950096E0,1.854000092E0
3.091692260E-1,-9.556050301E0,1.510050058E0,1.873050094E0
3.117028630E-1,-9.580050468E0,1.522050023E0,1.878000140E0
3.142364010E-1,-9.586950302E0,1.537950039E0,1.861050129E0
3.167701680E-1,-9.604050636E0,1.576950073E0,1.818000078E0
3.193037860E-1,-9.646950722E0,1.573950052E0,1.798950076E0
3.218375920E-1,-9.622950554E0,1.567050099E0,1.834950089E0
3.243711330E-1,-9.625050545E0,1.591050029E0,1.795950055E0
3.269047460E-1,-9.604050636E0,1.612950087E0,1.780050039E0
3.294385150E-1,-9.562950134E0,1.629000068E0,1.758000135E0
3.319721040E-1,-9.550950050E0,1.644000053E0,1.660050035E0
3.345056420E-1,-9.537000656E0,1.657950044E0,1.567050099E0
3.370394090E-1,-9.508050919E0,1.620000124E0,1.576050043E0
3.395730270E-1,-9.481950760E0,1.624950051E0,1.588050127E0
3.421067800E-1,-9.501000404E0,1.665000081E0,1.614000082E0
3.446403200E-1,-9.556050301E0,1.699050069E0,1.606950045E0
3.471739340E-1,-9.640050888E0,1.747050047E0,1.449000120E0
3.497077030E-1,-9.721050262E0,1.780050039E0,1.351050019E0
3.522412430E-1,-9.754950523E0,1.753950119E0,1.308000088E0
3.547748570E-1,-9.733050346E0,1.708050132E0,1.339050055E0
3.573086260E-1,-9.693000793E0,1.725000024E0,1.408050060E0
3.598422430E-1,-9.610950470E0,1.740000129E0,1.447050095E0
3.623759820E-1,-9.526950836E0,1.753950119E0,1.461000085E0
3.649095220E-1,-9.466950417E0,1.761000037E0,1.441950083E0
3.674431360E-1,-9.403050423E0,1.741950035E0,1.456050038E0
3.699769050E-1,-9.388050079E0,1.761000037E0,1.461000085E0
3.725104590E-1,-9.307050705E0,1.785000086E0,1.521000028E0
3.750440730E-1,-9.288000107E0,1.756050110E0,1.558950067E0
3.775778420E-1,-9.252000809E0,1.771050096E0,1.576050043E0
3.801114590E-1,-9.264000893E0,1.762950063E0,1.570950031E0
3.826450120E-1,-9.211050034E0,1.777950048E0,1.588050127E0
3.851787790E-1,-9.163050652E0,1.756050110E0,1.614000082E0
3.877123960E-1,-9.145950317E0,1.761000037E0,1.636050105E0
3.902461640E-1,-9.130050659E0,1.798950076E0,1.650000095E0
3.927796850E-1,-9.111000061E0,1.798950076E0,1.666950107E0
3.953132980E-1,-9.094050407E0,1.822950125E0,1.654950023E0
3.978470680E-1,-9.079050064E0,1.854000092E0,1.642950058E0
4.003806080E-1,-9.087000847E0,1.918950081E0,1.705050111E0
4.029142410E-1,-9.048000336E0,1.936050057E0,1.677000046E0
4.054480100E-1,-9.040950775E0,1.929000139E0,1.690950036E0
4.079816270E-1,-9.052950859E0,1.969050050E0,1.696050048E0
4.105151660E-1,-9.019950867E0,1.957050085E0,1.714950085E0
4.130489430E-1,-8.988000870E0,1.929000139E0,1.720050097E0
4.155825600E-1,-8.967000008E0,1.912050128E0,1.698000073E0
4.181163280E-1,-8.940000534E0,1.837950110E0,1.677000046E0
4.206499450E-1,-8.923950195E0,1.795050144E0,1.705050111E0
4.231834640E-1,-8.907000542E0,1.894950032E0,1.701000094E0
4.257172320E-1,-8.866050720E0,2.022000074E0,1.689000130E0
4.282508490E-1,-8.835000038E0,2.101050138E0,1.734000087E0
4.307843870E-1,-8.803950310E0,2.187000036E0,1.842000127E0
4.333181550E-1,-8.787000656E0,2.242050171E0,1.890000105E0
4.358517720E-1,-8.789999962E0,2.293050051E0,1.950000048E0
4.383853110E-1,-8.809050560E0,2.310000181E0,2.155950069E0
4.409190780E-1,-8.854050636E0,2.274000168E0,2.308950186E0
4.434527280E-1,-8.859000206E0,2.254050016E0,2.497950077E0
4.459864950E-1,-8.821050644E0,2.202000141E0,2.613000154E0
4.485201130E-1,-8.802000046E0,2.182950020E0,2.674950123E0
4.510536510E-1,-8.751000404E0,2.185050011E0,2.746950150E0
4.535874000E-1,-8.722949982E0,2.178000212E0,2.733000040E0
4.561210170E-1,-8.715000153E0,2.190000057E0,2.707050085E0
4.586545550E-1,-8.706000328E0,2.151000023E0,2.584050179E0
4.611883230E-1,-8.766000748E0,2.190000057E0,2.497950077E0
4.637219540E-1,-8.799000740E0,2.213999987E0,2.521950006E0
4.662557210E-1,-8.940000534E0,2.235000134E0,2.496000051E0
4.687892620E-1,-9.111000061E0,2.213999987E0,2.401950121E0
4.713228750E-1,-9.160950661E0,2.199000120E0,2.599050045E0
4.738566300E-1,-9.319050789E0,2.155950069E0,2.731050014E0
4.763902480E-1,-9.517950058E0,2.127000093E0,2.208000183E0
4.789237860E-1,-9.538950920E0,2.151000023E0,2.263950109E0
4.814575530E-1,-9.562950134E0,2.130000114E0,2.368950129E0
4.839911520E-1,-9.580050468E0,2.022000074E0,2.122050047E0
4.865246900E-1,-9.477000237E0,1.921950102E0,2.098050117E0
4.890584580E-1,-9.403050423E0,1.869000077E0,2.179949999E0
4.915920750E-1,-9.309000015E0,1.809000134E0,2.187000036E0
4.941258660E-1,-9.214050293E0,1.720050097E0,2.211000204E0
4.966594070E-1,-9.024000168E0,1.588950038E0,2.460000038E0
4.991930200E-1,-8.907000542E0,1.540950060E0,2.481000185E0
5.017267890E-1,-8.838000298E0,1.480950117E0,2.259000063E0
5.042603920E-1,-8.773050308E0,1.360950112E0,2.308950186E0
5.067941590E-1,-8.682000160E0,1.279950023E0,2.248950005E0
5.093276990E-1,-8.512050629E0,1.189050078E0,2.101050138E0
5.118613130E-1,-8.221950531E0,1.033050060E0,2.119950056E0
5.143950820E-1,-7.935000420E0,9.060000181E-1,1.998000145E0
5.169286220E-1,-7.723950386E0,8.800500631E-1,1.621950030E0
5.194622360E-1,-7.563000202E0,8.250000477E-1,1.167000055E0
5.219960050E-1,-7.534950256E0,7.669500113E-1,6.010500193E-1
5.245296220E-1,-7.633050442E0,7.429500222E-1,1.390500069E-1
5.270631610E-1,-7.911000252E0,6.880500317E-1,-1.740000099E-1
5.295969280E-1,-8.332050323E0,6.570000052E-1,-4.900500178E-1
5.321305460E-1,-8.860950470E0,6.670500040E-1,-4.609500170E-1
5.346643080E-1,-9.276000023E0,7.189500332E-1,-3.559500277E-1
5.371978480E-1,-9.712050438E0,7.770000100E-1,-1.260000020E-1
5.397314620E-1,-9.967950821E0,8.149500489E-1,3.190500140E-1
5.422652310E-1,-1.024305058E1,8.080500364E-1,7.429500222E-1
5.447987620E-1,-1.053105068E1,8.680500388E-1,1.120950103E0
5.473323760E-1,-1.072500038E1,9.490500689E-1,1.552050114E0
5.498661450E-1,-1.079205036E1,1.063950062E0,1.909050107E0
5.523996850E-1,-1.085895061E1,1.143000007E0,2.125050068E0
5.549335300E-1,-1.082100010E1,1.207950115E0,2.311050177E0
5.574670700E-1,-1.067400074E1,1.243950009E0,2.359050035E0
5.600006850E-1,-1.050405025E1,1.323000073E0,2.428950071E0
5.625344530E-1,-1.032495022E1,1.347000122E0,2.460000038E0
5.650679970E-1,-1.013805008E1,1.368000031E0,2.434050083E0
5.676016110E-1,-9.946050644E0,1.383000016E0,2.344950199E0
5.701353800E-1,-9.760050774E0,1.380000114E0,2.344950199E0
5.726689970E-1,-9.613050461E0,1.311000109E0,2.272950172E0
5.752025160E-1,-9.502950668E0,1.239000082E0,2.295000076E0
5.777362830E-1,-9.373950005E0,1.215000033E0,2.254050016E0
5.802699000E-1,-9.319050789E0,1.138050079E0,2.042999983E0
5.828036680E-1,-9.313950539E0,1.119000077E0,1.971000075E0
5.853373140E-1,-9.312000275E0,1.090050101E0,1.951950073E0
5.878708520E-1,-9.357000351E0,1.093050003E0,1.846950054E0
5.904046200E-1,-9.440999985E0,1.023000002E0,1.801050067E0
5.929382370E-1,-9.490950584E0,1.051950097E0,1.738950133E0
5.954717700E-1,-9.568050385E0,1.074000001E0,1.696050048E0
5.980055380E-1,-9.678000450E0,1.122000098E0,1.686000109E0
6.005391550E-1,-9.730950356E0,1.110000014E0,1.686000109E0
6.030726940E-1,-9.811950684E0,1.150050044E0,1.732050061E0
6.056064520E-1,-9.891000748E0,1.183950067E0,1.782000065E0
6.081400690E-1,-9.982050896E0,1.183950067E0,1.761000037E0
6.106736080E-1,-1.008105087E1,1.210050106E0,1.782000065E0
6.132074520E-1,-1.017600060E1,1.219950080E0,1.650000095E0
6.157410010E-1,-1.025805092E1,1.189050078E0,1.437000036E0
6.182747690E-1,-1.018800068E1,1.143000007E0,1.345950007E0
6.208083860E-1,-1.003005028E1,1.003950000E0,1.444050074E0
6.233419240E-1,-9.742950439E0,9.040500522E-1,1.612050056E0
6.258757020E-1,-9.616050720E0,9.160500169E-1,1.816050053E0
6.284093190E-1,-9.505950928E0,9.010500312E-1,1.999950051E0
6.309430860E-1,-9.469950676E0,9.490500689E-1,2.188950062E0
6.334766270E-1,-9.415050507E0,9.990000725E-1,2.179949999E0
6.360102450E-1,-9.369000435E0,1.023000002E0,2.080950022E0
6.385440140E-1,-9.477000237E0,9.870000482E-1,1.957050085E0
6.410776320E-1,-9.475050926E0,1.083000064E0,1.774950027E0
6.436113990E-1,-9.505950928E0,1.131000042E0,1.729050040E0
6.461449480E-1,-9.477000237E0,1.186050057E0,1.693050027E0
6.486785620E-1,-9.427050591E0,1.171950102E0,1.509000063E0
6.512123310E-1,-9.396000862E0,1.155000091E0,1.252950072E0
6.537458720E-1,-9.645000458E0,1.047000051E0,1.348950028E0
6.562794850E-1,-1.022400093E1,-4.440000355E-1,3.130950212E0
6.588132540E-1,-1.003695011E1,-2.547000170E0,4.363950253E0
6.613467950E-1,-1.059105015E1,-6.379500031E-1,2.569950104E0
6.638806390E-1,-1.134495068E1,1.965000153E0,9.105000645E-2
6.664141980E-1,-1.131405067E1,2.142000198E0,-1.138950109E0
6.689478140E-1,-1.097895050E1,1.324950099E0,-1.042950034E0
6.714815810E-1,-1.085400009E1,9.949500561E-1,-3.720000088E-1
6.740151210E-1,-1.086600018E1,1.063950062E0,5.320500135E-1
6.765487310E-1,-1.074900055E1,1.045050025E0,1.602000117E0
6.790825000E-1,-1.065105057E1,8.490000367E-1,2.596050024E0
6.816160400E-1,-1.057605076E1,6.900000572E-1,3.159000158E0
6.841496540E-1,-1.053105068E1,7.549500465E-1,3.307950258E0
6.866834370E-1,-1.061700058E1,9.439500570E-1,2.878950119E0
6.892170540E-1,-1.079205036E1,9.730500579E-1,2.164950132E0
6.917505930E-1,-1.096905041E1,9.640500546E-1,1.636050105E0
6.942843980E-1,-1.108605099E1,8.340000510E-1,1.312950015E0
6.968180500E-1,-1.120095062E1,7.789500356E-1,1.200000048E0
6.993517130E-1,-1.137105083E1,6.670500040E-1,1.095000029E0
7.018958600E-1,-1.137405014E1,6.109500527E-1,9.850500226E-1
7.044189390E-1,-1.116795063E1,6.019500494E-1,1.104000092E0
7.069527060E-1,-1.107405090E1,6.379500031E-1,1.068000078E0
7.094863210E-1,-1.099305058E1,6.930000186E-1,1.104000092E0
7.120198650E-1,-1.091895008E1,7.189500332E-1,1.284000039E0
7.145536340E-1,-1.085205078E1,8.629500270E-1,1.662000060E0
7.170872490E-1,-1.076805019E1,1.018950105E0,1.954950094E0
7.196207900E-1,-1.063095093E1,1.203000069E0,2.404950142E0
7.221545430E-1,-1.042305088E1,1.396950126E0,2.817000151E0
7.246881600E-1,-1.010400009E1,1.522050023E0,3.183000088E0
7.272219280E-1,-9.834000587E0,1.632000089E0,3.304950237E0
7.297555450E-1,-9.640050888E0,1.749000072E0,3.154050112E0
7.322890600E-1,-9.496050835E0,1.845000029E0,2.937000036E0
7.348228270E-1,-9.312000275E0,1.773000121E0,2.740050077E0
7.373564440E-1,-9.199050903E0,1.629000068E0,2.395050049E0
7.398899830E-1,-9.196950912E0,1.435050011E0,2.022000074E0
7.424237600E-1,-9.157950401E0,1.146000028E0,1.701000094E0
7.449573770E-1,-9.130050659E0,8.820000291E-1,1.522950053E0
7.474911450E-1,-9.166050911E0,6.090000272E-1,1.447050095E0
7.500246850E-1,-9.067049980E0,4.200000167E-1,1.594950080E0
7.525582840E-1,-8.907000542E0,2.950500250E-1,1.885050058E0
7.550920540E-1,-8.662950516E0,1.609500051E-1,2.009999990E0
7.576256710E-1,-8.469000816E0,8.895000070E-2,2.119950056E0
7.601594380E-1,-8.320050240E0,6.300000101E-2,2.266050100E0
7.626929930E-1,-8.263050079E0,7.995000482E-2,2.359050035E0
7.652266060E-1,-8.290950775E0,1.300500035E-1,2.386050224E0
7.677603750E-1,-8.353950500E0,1.800000072E-1,2.428950071E0
7.702939160E-1,-8.442000389E0,3.739500046E-1,2.398050070E0
7.728275340E-1,-8.457000732E0,5.160000324E-1,2.392950058E0
7.753613030E-1,-8.494950294E0,6.139500141E-1,2.311050177E0
7.778949210E-1,-8.622000694E0,7.309500575E-1,2.119950056E0
7.804284590E-1,-8.919000626E0,8.800500631E-1,1.780050039E0
7.829622350E-1,-9.331050873E0,1.006950021E0,1.513950109E0
7.854958520E-1,-9.865050316E0,1.111950040E0,1.399050117E0
7.880296190E-1,-1.024605083E1,8.440500498E-1,1.537950039E0
7.905631600E-1,-1.107405090E1,1.252950072E0,1.626000047E0
7.930967600E-1,-1.155600071E1,1.368000031E0,1.732050061E0
7.956305290E-1,-1.170900059E1,1.288950086E0,1.765050054E0
7.981641470E-1,-1.173105049E1,8.800500631E-1,1.819950104E0
8.006976850E-1,-1.192200089E1,7.740000486E-1,1.902000070E0
8.032314650E-1,-1.243005085E1,9.709500670E-1,1.897050142E0
8.057650830E-1,-1.246095085E1,7.219500542E-1,1.606950045E0
8.082988500E-1,-1.253505039E1,4.650000334E-1,1.249950051E0
8.108323900E-1,-1.250700092E1,2.880000174E-1,1.344000101E0
8.133660240E-1,-1.239705086E1,6.495000422E-2,1.396950126E0
8.158997930E-1,-1.227000046E1,-1.870500147E-1,1.507050037E0
8.184334100E-1,-1.217400074E1,-8.700000644E-1,1.897050142E0
8.209669490E-1,-1.266705036E1,-9.490500689E-1,2.599050045E0
8.235007110E-1,-1.249200058E1,-6.690000296E-1,2.980050087E0
8.260343290E-1,-1.191300011E1,-8.530500531E-1,2.983950138E0
8.285678670E-1,-1.173300076E1,-1.143000007E0,2.905050039E0
8.311017110E-1,-1.152000046E1,-9.510000348E-1,3.181050062E0
8.336352610E-1,-1.114605045E1,-8.029500246E-1,3.310050249E0
8.361690280E-1,-1.082505035E1,-1.114050031E0,3.259950161E0
8.387025680E-1,-1.058805084E1,-1.339050055E0,3.451050282E0
8.412361820E-1,-1.024605083E1,-1.332000017E0,3.621000290E0
8.437699800E-1,-1.016400051E1,-1.441950083E0,3.679050207E0
8.463035970E-1,-9.970050812E0,-1.729950070E0,3.921000242E0
8.488371360E-1,-9.925050735E0,-1.633950114E0,4.024050236E0
8.513709800E-1,-9.715950012E0,-1.813950062E0,4.135950089E0
8.539045350E-1,-9.343050003E0,-1.909950137E0,4.066950321E0
8.564383030E-1,-9.027000427E0,-1.993050098E0,3.982950211E0
8.589718430E-1,-8.707950592E0,-2.197050095E0,3.820050240E0
8.615054570E-1,-8.221950531E0,-2.089050055E0,3.637950182E0
8.640391970E-1,-7.714050293E0,-2.170950174E0,3.331950188E0
8.665728140E-1,-7.230000496E0,-2.053050041E0,3.205050230E0
8.691065810E-1,-6.655950546E0,-1.729950070E0,3.207000256E0
8.716401220E-1,-6.301050186E0,-1.785000086E0,3.139950037E0
8.741737440E-1,-5.856000423E0,-1.380000114E0,2.980050087E0
8.767075140E-1,-5.608950138E0,-8.920500278E-1,2.521950006E0
8.792410540E-1,-5.575050354E0,-8.010000587E-1,2.091000080E0
8.817748980E-1,-5.560950279E0,-4.939500093E-1,1.891950130E0
8.843084680E-1,-5.413050175E0,-1.729500145E-1,1.618950129E0
8.868420830E-1,-5.596950054E0,2.620500028E-1,1.528050065E0
8.893756210E-1,-5.692950249E0,5.590500236E-1,1.432050109E0
8.919093890E-1,-5.896050453E0,9.799500704E-1,1.393950105E0
8.944430010E-1,-6.210000515E0,1.359000087E0,1.380000114E0
8.969767680E-1,-6.409050465E0,1.729950070E0,1.309950113E0
8.995103090E-1,-6.672000408E0,2.089050055E0,1.389000058E0
9.020439220E-1,-7.147050381E0,1.986000061E0,1.092000008E0
9.045776910E-1,-7.309050560E0,2.161050081E0,1.147050023E0
9.071112320E-1,-7.695000172E0,2.058000088E0,1.344000101E0
9.096448450E-1,-8.161950111E0,2.014950037E0,1.561950088E0
9.121786150E-1,-8.421000481E0,2.092050076E0,1.729050040E0
9.147122370E-1,-8.725049973E0,2.134950161E0,1.618950129E0
9.172460040E-1,-9.022050858E0,2.323950052E0,1.429950118E0
9.197795450E-1,-9.276000023E0,2.415000200E0,1.186050057E0
9.223131580E-1,-9.477000237E0,2.374050140E0,1.080000043E0
9.248469030E-1,-9.727950096E0,2.428950071E0,1.132950068E0
9.273805210E-1,-9.867000580E0,2.215950012E0,9.799500704E-1
9.299140590E-1,-9.802950859E0,2.022000074E0,8.910000324E-1
9.324478260E-1,-1.002300072E1,1.711050034E0,9.250500202E-1
9.349814200E-1,-1.009995079E1,1.557000041E0,1.096950054E0
9.375149580E-1,-1.015500069E1,1.584000111E0,9.130500555E-1
9.400488020E-1,-1.023105049E1,1.438050032E0,5.080500245E-1
9.425823430E-1,-1.014495087E1,1.443000078E0,6.730500460E-1
9.451160960E-1,-1.003005028E1,1.596000075E0,8.959500194E-1
9.476497130E-1,-9.793050766E0,1.774950027E0,7.950000167E-1
9.501832520E-1,-9.501000404E0,1.977000117E0,3.640500307E-1
9.527170190E-1,-9.348000526E0,2.347950220E0,2.205000073E-2
9.552506410E-1,-9.157950401E0,2.913000107E0,-1.140000075E-1
9.577844080E-1,-8.722949982E0,3.322950125E0,-2.670000196E-1
9.603179480E-1,-8.428050041E0,3.883050203E0,-3.340500295E-1
9.628515620E-1,-7.860000610E0,4.256999969E0,-5.089499950E-1
9.653853170E-1,-7.446000576E0,4.666050434E0,-4.630500078E-1
9.679188570E-1,-6.972000122E0,4.843050003E0,-4.440000355E-1
9.704527020E-1,-6.718050480E0,5.215050220E0,-2.449500114E-1
9.729862420E-1,-6.367950439E0,5.310000420E0,8.205000311E-2
9.755198570E-1,-6.154950142E0,5.200050354E0,3.859500289E-1
9.780536250E-1,-6.232050419E0,5.229000092E0,7.090500593E-1
9.805871650E-1,-6.319950104E0,5.349000454E0,7.909500599E-1
9.831207780E-1,-6.423000336E0,5.514000416E0,6.559500098E-1
9.856545720E-1,-6.330000401E0,5.682000160E0,7.120500207E-1
9.881881120E-1,-6.070950508E0,5.281950474E0,7.470000386E-1
9.907217260E-1,-6.061950207E0,4.609050274E0,7.759500146E-1
9.932554950E-1,-6.184050083E0,4.027050018E0,8.310000300E-1
9.957890260E-1,-6.535950184E0,3.588000059E0,1.108950019E0
9.983228700E-1,-7.147050381E0,3.220050097E0,1.624050021E0
1.000856411E0,-7.990050316E0,2.947050095E0,1.983000040E0
1.003390026E0,-8.872950554E0,2.686050177E0,2.191950083E0
1.005923774E0,-9.706950188E0,2.542050123E0,2.434050083E0
1.008457391E0,-1.048500061E1,2.434050083E0,2.541000128E0
1.010990929E0,-1.111800098E1,2.419950008E0,2.697000027E0
1.013524697E0,-1.209705067E1,2.536950111E0,2.982000113E0
1.016058334E0,-1.308600044E1,2.535000086E0,2.896050215E0
1.018591872E0,-1.414200020E1,2.535000086E0,2.668050051E0
1.021125640E0,-1.569195080E1,1.552950025E0,2.485950232E0
1.023659257E0,-1.610895157E1,1.615050077E0,2.125050068E0
1.026192800E0,-1.523505116E1,2.269050121E0,1.375050068E0
1.028726644E0,-1.526295090E1,2.355000019E0,5.370000005E-1
1.031260184E0,-1.438395023E1,2.511000156E0,1.060500070E-1
1.033793951E0,-1.349805069E1,2.757000208E0,7.200000435E-2
1.036327541E0,-1.253805065E1,1.789950132E0,2.880000174E-1
1.038861079E0,-1.233705044E1,1.825950146E0,7.500000596E-1
1.041394847E0,-1.142895031E1,2.499000072E0,7.350000143E-1
1.043928464E0,-1.056900024E1,2.440950155E0,-1.620000005E-1
1.046462222E0,-1.011195087E1,2.332950115E0,-3.169500232E-1
1.048995763E0,-9.415050507E0,2.035950184E0,-4.230000079E-1
1.051529376E0,-9.253950119E0,1.813950062E0,-6.529500484E-1
1.054063145E0,-8.895000458E0,1.711050034E0,-4.180500209E-1
1.056596768E0,-8.545050621E0,1.795050144E0,-3.100500107E-1
1.059130535E0,-8.311050415E0,1.831050038E0,2.370000184E-1
1.061664075E0,-7.924950600E0,1.797000051E0,7.590000629E-1
1.064197689E0,-7.771950245E0,1.914000034E0,9.439500570E-1
1.066731477E0,-7.647000313E0,2.275950193E0,1.051950097E0
1.069265017E0,-7.393050194E0,2.386050224E0,1.092000008E0
1.071798631E0,-7.384050369E0,2.520000219E0,1.039950013E0
1.074332400E0,-7.462950230E0,2.865000248E0,1.179000020E0
1.076865921E0,-7.408050537E0,2.992050171E0,1.055999994E0
1.079399534E0,-7.305000305E0,2.920050144E0,8.770500422E-1
1.081933303E0,-7.354950428E0,2.832000017E0,9.510000348E-1
1.084466921E0,-7.317000389E0,3.052050114E0,9.079500437E-1
1.087000736E0,-7.326000214E0,3.118950129E0,1.036949992E0
1.089534353E0,-7.065000534E0,3.211950064E0,9.970500469E-1
1.092067892E0,-7.008000374E0,3.484950066E0,8.959500194E-1
1.094601659E0,-6.883050442E0,3.732000113E0,7.879500389E-1
1.097135291E0,-6.655950546E0,3.976050138E0,4.549500346E-1
1.099668830E0,-6.307950497E0,4.675950050E0,3.019500077E-1
1.102202597E0,-5.595000267E0,5.593050480E0,2.800500095E-1
1.104736214E0,-5.623050213E0,5.521050453E0,5.080500245E-1
1.107269767E0,-6.664950371E0,5.017950058E0,7.120500207E-1
1.109803611E0,-7.693050385E0,3.924000263E0,1.849500090E-1
1.112337151E0,-8.092950821E0,3.394050121E0,-1.995000057E-2
1.114870919E0,-8.097000122E0,4.045950413E0,0.000000000E0
1.117404560E0,-8.677050591E0,4.123050213E0,-4.630500078E-1
1.119938099E0,-9.556050301E0,3.699000120E0,-6.529500484E-1
1.122471866E0,-1.044195080E1,3.004050255E0,1.020000100E0
1.125005483E0,-1.048800087E1,2.980050087E0,2.659050226E0
1.127539250E0,-1.028400040E1,3.346950054E0,2.683050156E0
1.130072791E0,-1.000395012E1,3.430050135E0,1.528050065E0
1.132606404E0,-9.661050797E0,3.262950182E0,6.799500585E-1
1.135140174E0,-9.063000679E0,2.785950184E0,6.900000572E-1
1.137673671E0,-8.634000778E0,2.463000059E0,1.114050031E0
1.140207515E0,-8.374950409E0,2.026950121E0,1.768050075E0
1.142741056E0,-8.248050690E0,1.452000022E0,2.179949999E0
1.145274671E0,-8.494950294E0,7.530000210E-1,2.235000134E0
1.147808423E0,-8.236050606E0,7.930500507E-1,1.923000097E0
1.150341964E0,-8.344050407E0,1.054949999E0,1.693050027E0
1.152875577E0,-8.380050659E0,1.239000082E0,1.296000004E0
1.155409346E0,-8.377950668E0,1.579050064E0,1.055999994E0
1.157942897E0,-8.454000473E0,1.809000134E0,1.027950048E0
1.160476510E0,-8.548050880E0,2.173050165E0,1.156949997E0
1.163010279E0,-8.809050560E0,2.259000063E0,1.521000028E0
1.165543897E0,-9.019950867E0,1.354050040E0,1.773000121E0
1.168077664E0,-9.249000549E0,5.059500337E-1,1.837050080E0
1.170611281E0,-9.343050003E0,8.505000174E-2,1.708050132E0
1.173144820E0,-9.187050819E0,7.020000219E-1,9.630000591E-1
1.175678587E0,-9.477000237E0,1.540950060E0,2.899500132E-1
1.178212186E0,-9.610950470E0,2.395950079E0,4.909500182E-1
1.180745724E0,-9.754950523E0,2.748000145E0,1.198050022E0
1.183279491E0,-1.006905079E1,3.070950031E0,1.672050118E0
1.185813109E0,-1.057095051E1,3.531000137E0,1.945050120E0
1.188346637E0,-1.085700035E1,3.535950184E0,2.200950146E0
1.190880481E0,-1.122300053E1,3.751050234E0,2.314050198E0
1.193414022E0,-1.140300083E1,3.780000210E0,2.299050093E0
1.195947789E0,-1.115805054E1,3.550050259E0,2.026050091E0
1.198481444E0,-1.133295059E1,3.310950041E0,2.046000004E0
1.201014983E0,-1.145805073E1,2.791050196E0,1.903950095E0
1.203548750E0,-1.168500042E1,2.436000109E0,1.770000100E0
1.206082367E0,-1.157295036E1,2.083950043E0,1.818000078E0
1.208616150E0,-1.127805042E1,2.062950134E0,1.926000118E0
1.211149690E0,-1.129500008E1,2.074949980E0,2.134050131E0
1.213683304E0,-1.119900036E1,2.341050148E0,1.990050077E0
1.216217073E0,-1.140705013E1,2.338050127E0,1.938000083E0
1.218750622E0,-1.158705044E1,2.187000036E0,1.842000127E0
1.221284466E0,-1.174500084E1,2.607000113E0,1.981050134E0
1.223818007E0,-1.194405079E1,2.767050028E0,1.915950060E0
1.226351622E0,-1.189395046E1,2.532000065E0,1.621950030E0
1.228885365E0,-1.193205070E1,2.491950035E0,1.573950052E0
1.231418905E0,-1.170900059E1,2.419950008E0,1.573950052E0
1.233952518E0,-1.116795063E1,2.343000174E0,1.674000025E0
1.236486288E0,-1.094805050E1,2.595000029E0,1.887000084E0
1.239019852E0,-1.072200012E1,2.341050148E0,1.549950123E0
1.241553465E0,-1.070100021E1,1.957050085E0,1.501950026E0
1.244087235E0,-1.072005081E1,1.584000111E0,1.636050105E0
1.246620852E0,-1.063395023E1,1.219950080E0,1.477950096E0
1.249154387E0,-1.041600037E1,9.420000315E-1,1.377000093E0
1.251688154E0,-1.013295078E1,8.320500255E-1,1.429950118E0
1.254221771E0,-1.015200043E1,9.060000181E-1,1.629000068E0
1.256755538E0,-1.006095028E1,1.075950027E0,1.665000081E0
1.259289175E0,-9.985050201E0,1.344000101E0,1.750950098E0
1.261822713E0,-9.834000587E0,1.536000013E0,1.720050097E0
1.264356481E0,-9.661050797E0,1.591050029E0,1.591050029E0
1.266890098E0,-9.526950836E0,1.447050095E0,1.428000093E0
1.269423636E0,-9.271050453E0,1.308000088E0,1.243050098E0
1.271957404E0,-9.244950294E0,1.147950053E0,1.273950100E0
1.274491021E0,-9.229950905E0,1.074000001E0,1.261950016E0
1.277024788E0,-9.285000801E0,1.087950110E0,1.315050006E0
1.279558391E0,-9.418950081E0,1.213050008E0,1.348950028E0
1.282091929E0,-9.550950050E0,1.402050018E0,1.357950091E0
1.284625696E0,-9.700050354E0,1.665000081E0,1.372950077E0
1.287159314E0,-9.688050270E0,2.182950020E0,1.416000009E0
1.289693067E0,-9.417000771E0,2.752950191E0,1.488000035E0
1.292226607E0,-9.181950569E0,3.109050035E0,1.420050025E0
1.294760221E0,-9.331050873E0,3.438000202E0,1.191000104E0
1.297293990E0,-9.433950424E0,3.648000240E0,1.092000008E0
1.299827555E0,-9.465000153E0,3.814050198E0,1.104000092E0
1.302361168E0,-9.463050842E0,3.595950127E0,8.940000534E-1
1.304894937E0,-9.556050301E0,3.438000202E0,8.170500398E-1
1.307428555E0,-9.570000648E0,3.354000092E0,9.460500479E-1
1.309962303E0,-9.496050835E0,2.949000120E0,9.679500461E-1
1.312495843E0,-9.537000656E0,2.926950216E0,1.582950115E0
1.315029457E0,-9.352050781E0,2.482050180E0,1.713000059E0
1.317563226E0,-9.513000488E0,2.431950092E0,1.762950063E0
1.320096843E0,-9.345000267E0,2.535000086E0,1.653000116E0
1.322630382E0,-9.319050789E0,2.287950039E0,1.270050049E0
1.325164149E0,-9.453000069E0,2.122950077E0,1.273950100E0
1.327697766E0,-9.373950005E0,2.235000134E0,1.399050117E0
1.330231309E0,-9.453000069E0,2.262000084E0,1.498950124E0
1.332765153E0,-9.343050003E0,2.343000174E0,1.513950109E0
1.335298693E0,-9.253950119E0,2.487000227E0,1.762950063E0
1.337832461E0,-9.393000603E0,2.688000202E0,1.768050075E0
1.340366078E0,-9.259050369E0,2.665950060E0,1.317000031E0
1.342899617E0,-9.175050735E0,2.530050039E0,1.167000055E0
1.345433384E0,-9.127050400E0,2.518050194E0,1.393950105E0
1.347967001E0,-9.223050117E0,2.311950207E0,1.408050060E0
1.350500550E0,-9.415050507E0,2.137050152E0,1.291050076E0
1.353034317E0,-9.622950554E0,2.161050081E0,1.237950087E0
1.355567934E0,-9.601950645E0,1.950000048E0,1.243050098E0
1.358101702E0,-9.481950760E0,1.572000027E0,1.312950015E0
1.360635285E0,-9.645000458E0,1.981050134E0,1.576050043E0
1.363169052E0,-9.787950516E0,2.472000122E0,1.567050099E0
1.365702593E0,-9.705000877E0,2.448000193E0,1.384950042E0
1.368236206E0,-9.748050690E0,2.311950207E0,1.309950113E0
1.370769966E0,-1.011405087E1,2.311950207E0,1.372950077E0
1.373303507E0,-1.018800068E1,2.178000212E0,1.246050000E0
1.375837120E0,-1.018605042E1,2.077050209E0,1.131000042E0
1.378370889E0,-1.022400093E1,1.938000083E0,1.188000083E0
1.380904415E0,-1.027005005E1,1.810950041E0,1.204950094E0
1.383438028E0,-1.057905006E1,2.034000158E0,1.324950099E0
1.385971797E0,-1.033395004E1,2.380950212E0,1.339050055E0
1.388505415E0,-1.020300007E1,2.709000111E0,1.096950054E0
1.391039197E0,-1.030995083E1,2.896050215E0,9.630000591E-1
1.393572738E0,-1.009695053E1,2.901000023E0,8.380500674E-1
1.396106351E0,-9.763950348E0,2.901000023E0,8.029500246E-1
1.398640120E0,-9.676050186E0,2.779050112E0,8.070000410E-1
1.401173743E0,-9.628050804E0,2.749950171E0,8.100000620E-1
1.403707281E0,-9.407999992E0,2.596950054E0,9.409500360E-1
1.406241048E0,-9.537000656E0,2.923050165E0,1.055999994E0
1.408774666E0,-9.640050888E0,3.253050089E0,1.090050101E0
1.411308433E0,-9.388050079E0,3.165000200E0,1.054050088E0
1.413842050E0,-9.312000275E0,2.965950251E0,1.171050072E0
1.416375589E0,-9.415050507E0,2.820000172E0,1.267050028E0
1.418909356E0,-9.532050133E0,2.740950108E0,1.255050063E0
1.421442944E0,-9.604050636E0,2.737950087E0,1.381950021E0
1.423976483E0,-9.642000198E0,2.728950024E0,1.495050073E0
1.426510250E0,-9.646950722E0,2.698050022E0,1.453950047E0
1.429043867E0,-9.546000481E0,2.689950228E0,1.437000036E0
1.431577602E0,-9.268950462E0,2.776950121E0,1.396950126E0
1.434111142E0,-8.995950699E0,2.857950211E0,1.267050028E0
1.436644756E0,-8.706000328E0,2.851050138E0,1.288950086E0
1.439178525E0,-8.370000839E0,2.755050182E0,1.321950078E0
1.441712122E0,-8.272050858E0,2.638050079E0,1.483050108E0
1.444245889E0,-8.171999931E0,2.460000038E0,1.602000117E0
1.446779430E0,-8.389950752E0,2.367000103E0,1.734000087E0
1.449313043E0,-8.575950623E0,2.226000071E0,1.854000092E0
1.451846828E0,-8.809050560E0,2.106000185E0,1.834950089E0
1.454380368E0,-9.111000061E0,1.989000082E0,1.876050115E0
1.456913981E0,-9.418950081E0,2.014950037E0,1.918950081E0
1.459447751E0,-9.693000793E0,2.068050146E0,2.053050041E0
1.461981377E0,-9.748050690E0,2.044049978E0,1.906950116E0
1.464514915E0,-9.772050858E0,2.014950037E0,1.902000070E0
1.467048683E0,-9.750000000E0,2.146950006E0,2.042999983E0
1.469582300E0,-9.613050461E0,2.295000076E0,1.969050050E0
1.472116077E0,-9.484050751E0,2.356950045E0,1.918950081E0
1.474649695E0,-9.373950005E0,2.488950014E0,1.971000075E0
1.477183233E0,-9.228000641E0,2.628000021E0,1.923000097E0
1.479717000E0,-9.163050652E0,2.743050098E0,1.933050036E0
1.482250599E0,-9.052950859E0,2.911050081E0,2.005050182E0
1.484784137E0,-8.956950188E0,3.088050127E0,2.023950100E0
1.487317905E0,-8.755949974E0,3.223950148E0,2.074050188E0
1.489851522E0,-8.482950211E0,3.370950222E0,2.101050138E0
1.492385289E0,-8.197950363E0,3.471000195E0,2.031000137E0
1.494918907E0,-7.956000328E0,3.531000137E0,1.987950087E0
1.497452445E0,-7.743000507E0,3.591000080E0,1.942950130E0
1.499986212E0,-7.614000320E0,3.556950092E0,1.927950144E0
1.502519820E0,-7.482000351E0,3.565050125E0,1.983000040E0
1.505053587E0,-7.435950279E0,3.556950092E0,1.995000124E0
1.507587127E0,-7.494000435E0,3.574050188E0,2.007000208E0
1.510120741E0,-7.651950359E0,3.586050272E0,2.019000053E0
1.512654501E0,-7.906050205E0,3.538050175E0,1.966950059E0
1.515188118E0,-8.204999924E0,3.631950140E0,1.983000040E0
1.517721657E0,-8.538000107E0,3.580950260E0,2.053050041E0
1.520255424E0,-8.875950813E0,3.579000235E0,2.137050152E0
1.522788955E0,-9.235050201E0,3.580950260E0,2.188950062E0
1.525322799E0,-9.546000481E0,3.615000248E0,2.175000191E0
1.527856339E0,-9.838950157E0,3.658050060E0,2.103000164E0
1.530389955E0,-1.004205036E1,3.708000183E0,2.140950203E0
1.532923746E0,-1.015005016E1,3.679050207E0,2.103000164E0
1.535457286E0,-1.022895050E1,3.904950142E0,2.074050188E0
1.537990900E0,-1.020495033E1,4.084050179E0,2.034000158E0
1.540524669E0,-1.014495087E1,3.856950283E0,2.095950127E0
1.543058310E0,-9.973050117E0,3.676950216E0,2.007000208E0
1.545592077E0,-9.910050392E0,3.568950176E0,1.761000037E0
1.548125618E0,-9.823950768E0,3.559950113E0,1.573950052E0
1.550659231E0,-9.727950096E0,3.511950254E0,1.341000080E0
1.553192767E0,-9.666000366E0,3.379950047E0,1.116000056E0
1.555726611E0,-9.640050888E0,3.391950130E0,9.060000181E-1
1.558260151E0,-9.670950890E0,3.291000128E0,7.669500113E-1
1.560793919E0,-9.604050636E0,3.169050217E0,6.300000548E-1
1.563327517E0,-9.561000824E0,3.088050127E0,5.920500159E-1
1.565861284E0,-9.501000404E0,3.070950031E0,6.040500402E-1
1.568394825E0,-9.466950417E0,3.028050184E0,5.389500260E-1
1.570928438E0,-9.451050758E0,3.058950186E0,3.810000122E-1
1.573461955E0,-9.537000656E0,3.283950090E0,2.710500062E-1
1.575995799E0,-9.661050797E0,3.511950254E0,3.070500195E-1
1.578529339E0,-9.666000366E0,3.607950211E0,4.549500346E-1
1.581063107E0,-9.568050385E0,3.640950203E0,5.370000005E-1
1.583596729E0,-9.594000816E0,3.675000191E0,4.960500300E-1
1.586130496E0,-9.484050751E0,3.636000156E0,5.029500127E-1
1.588664037E0,-9.333000183E0,3.616950274E0,4.860000312E-1
1.591197650E0,-9.181950569E0,3.612000227E0,5.149500370E-1
1.593731452E0,-9.063000679E0,3.586050272E0,4.770000279E-1
1.596265070E0,-8.967000008E0,3.652950287E0,4.099500179E-1
1.598798608E0,-8.895000458E0,3.706050158E0,4.150500298E-1
1.601332375E0,-8.860950470E0,3.627000093E0,3.280500174E-1
1.603865931E0,-8.863950729E0,3.457050085E0,3.240000010E-1
1.606399544E0,-8.955000877E0,3.235950232E0,1.680000126E-1
1.608933313E0,-9.199050903E0,2.937000036E0,-4.200000316E-2
1.611466931E0,-9.268950462E0,2.484000206E0,-1.380000114E-1
1.614000674E0,-9.514950752E0,1.989000082E0,8.595000207E-2
1.616534215E0,-9.568050385E0,5.080500245E-1,-1.201050043E0
1.619068059E0,-8.674950600E0,-7.600500584E-1,-1.824000120E0
1.621601599E0,-7.390950203E0,-9.750000238E-1,7.879500389E-1
1.624135205E0,-8.208000183E0,-6.330000162E-1,1.272000074E0
1.626668743E0,-8.289000511E0,-1.729500145E-1,1.135050058E0
1.629202510E0,-8.005949974E0,2.910000086E-1,1.072950006E0
1.631736128E0,-7.477050304E0,5.110500455E-1,7.830000520E-1
1.634269895E0,-6.688950539E0,5.179499984E-1,4.579500258E-1
1.636803512E0,-6.756000519E0,4.630500078E-1,6.400500536E-1
1.639337051E0,-6.819000244E0,1.308000088E0,1.224000096E0
1.641870818E0,-7.417050362E0,2.250000000E0,1.558950067E0
1.644404425E0,-7.705050468E0,2.851050138E0,1.272000074E0
1.646937964E0,-7.707000256E0,3.325050116E0,8.719500303E-1
1.649471808E0,-8.071050644E0,3.507000208E0,7.350000143E-1
1.652005348E0,-8.458950043E0,3.904950142E0,7.590000629E-1
1.654539121E0,-8.647950172E0,4.281000137E0,6.970500350E-1
1.657072661E0,-8.775000572E0,4.245000362E0,5.680500269E-1
1.659606275E0,-8.822999954E0,3.993000269E0,5.560500026E-1
1.662140044E0,-9.031949997E0,3.808950186E0,7.620000243E-1
1.664673676E0,-9.237000465E0,3.652950287E0,8.719500303E-1
1.667207443E0,-9.349950790E0,3.519000053E0,8.860500455E-1
1.669740984E0,-9.367050171E0,3.250950098E0,9.490500689E-1
1.672274597E0,-9.421950340E0,2.983050108E0,9.180000424E-1
1.674808385E0,-9.568050385E0,2.817000151E0,8.310000300E-1
1.677341926E0,-9.553950310E0,2.659050226E0,6.900000572E-1
1.679875770E0,-9.774000168E0,2.341050148E0,8.530500531E-1
1.682409311E0,-9.811950684E0,2.161050081E0,7.930500507E-1
1.684942935E0,-9.748050690E0,2.139000177E0,8.239500523E-1
1.687476473E0,-9.750000000E0,2.250000000E0,9.730500579E-1
1.690010241E0,-9.681000710E0,2.403000116E0,1.152000070E0
1.692543858E0,-9.610950470E0,2.551050186E0,1.309950113E0
1.695077592E0,-9.499050140E0,2.712000132E0,1.344000101E0
1.697611255E0,-9.424050331E0,2.797950029E0,1.348950028E0
1.700144932E0,-9.285000801E0,2.980050087E0,1.440000057E0
1.702696362E0,-8.992950439E0,3.136050224E0,1.488000035E0
1.705212133E0,-8.794050217E0,3.246000051E0,1.473000050E0
1.707745669E0,-8.665050507E0,3.390000105E0,1.540050030E0
1.710279515E0,-8.586000443E0,3.442050219E0,1.648050070E0
1.712813054E0,-8.538000107E0,3.487950087E0,1.629000068E0
1.715346823E0,-8.480999947E0,3.543000221E0,1.648050070E0
1.717880439E0,-8.314949989E0,3.622050285E0,1.786950111E0
1.720413979E0,-8.173950195E0,3.595950127E0,1.876050115E0
1.722947751E0,-8.088000298E0,3.580950260E0,1.794000030E0
1.725481369E0,-8.112000465E0,3.523950100E0,1.798950076E0
1.728014907E0,-8.169000626E0,3.399000168E0,1.804050088E0
1.730548674E0,-8.217000008E0,3.277050257E0,1.758000135E0
1.733082291E0,-8.347050667E0,3.138000250E0,1.665000081E0
1.735616058E0,-8.469000816E0,3.021000147E0,1.561950088E0
1.738149675E0,-8.596050262E0,2.935050249E0,1.440000057E0
1.740683214E0,-8.641050339E0,2.812050104E0,1.444050074E0
1.743216977E0,-8.778000832E0,2.725950241E0,1.392000079E0
1.745750594E0,-8.883000374E0,2.749950171E0,1.389000058E0
1.748284362E0,-9.031949997E0,2.662050009E0,1.393950105E0
1.750817902E0,-9.163050652E0,2.695050240E0,1.272000074E0
1.753351516E0,-9.285000801E0,2.695050240E0,1.270050049E0
1.755885285E0,-9.328050613E0,2.745000124E0,1.297950029E0
1.758418825E0,-9.361950874E0,2.821950197E0,1.192950010E0
1.760952439E0,-9.300000191E0,2.959050179E0,1.258050084E0
1.763486174E0,-9.247050285E0,3.010950089E0,1.332000017E0
1.766019791E0,-9.163050652E0,3.076050043E0,1.345950007E0
1.768553558E0,-9.225000381E0,3.160050154E0,1.384950042E0
1.771087099E0,-9.256950378E0,3.187950134E0,1.369950056E0
1.773620712E0,-9.178050041E0,3.235950232E0,1.416000009E0
1.776154482E0,-9.184950829E0,3.208050251E0,1.453950047E0
1.778688022E0,-9.229950905E0,3.172050238E0,1.413000107E0
1.781221635E0,-9.283050537E0,3.196050167E0,1.377000093E0
1.783755443E0,-9.271050453E0,3.162000179E0,1.384950042E0
1.786289060E0,-9.288000107E0,3.154950142E0,1.452000022E0
1.788822827E0,-9.357000351E0,3.220050097E0,1.401000023E0
1.791356368E0,-9.369000435E0,3.247950077E0,1.423050046E0
1.793889996E0,-9.289950371E0,3.232050180E0,1.510950089E0
1.796423765E0,-9.205950737E0,3.306000233E0,1.540050030E0
1.798957383E0,-9.175050735E0,3.342000246E0,1.485000014E0
1.801490921E0,-9.232950211E0,3.426000118E0,1.413000107E0
1.804024668E0,-9.072000504E0,3.403950214E0,1.666950107E0
1.806558286E0,-9.060000420E0,3.402000189E0,1.573950052E0
1.809091824E0,-9.124950409E0,3.370950222E0,1.516050100E0
1.811625592E0,-9.142050743E0,3.265050173E0,1.621950030E0
1.814159229E0,-9.192000389E0,3.211950064E0,1.605000019E0
1.816692996E0,-9.300000191E0,3.184050083E0,1.597950101E0
1.819226614E0,-9.477000237E0,3.082950115E0,1.690950036E0
1.821760152E0,-9.537000656E0,2.863050222E0,1.698000073E0
1.824293894E0,-9.520050049E0,2.724000216E0,1.600050092E0
1.826827512E0,-9.343050003E0,2.583000183E0,1.492050052E0
1.829361279E0,-9.192000389E0,2.410050154E0,1.429950118E0
1.831894819E0,-9.199050903E0,2.467950106E0,1.564050078E0
1.834428405E0,-9.397950172E0,2.752950191E0,1.873050094E0
1.836962174E0,-9.598950386E0,3.022950172E0,2.009999990E0
1.839495715E0,-9.709050179E0,3.217050076E0,1.921050072E0
1.842029559E0,-9.810000420E0,3.235950232E0,1.581000090E0
1.844563089E0,-9.942000389E0,3.142950058E0,1.219050050E0
1.847096705E0,-9.966000557E0,3.121050119E0,8.860500455E-1
1.849630472E0,-9.955950737E0,3.045000076E0,7.879500389E-1
1.852164012E0,-9.982050896E0,2.973000050E0,8.190000653E-1
1.854697636E0,-9.987000465E0,3.004050255E0,1.027950048E0
1.857231405E0,-9.942000389E0,2.920050144E0,1.059000015E0
1.859765022E0,-9.826950073E0,2.877000093E0,9.649500251E-1
1.862298561E0,-9.529950142E0,2.932050228E0,8.620500565E-1
1.864832347E0,-9.160950661E0,3.052050114E0,8.890500665E-1
1.867365964E0,-8.839950562E0,3.178950071E0,1.000950098E0
1.869899503E0,-8.659950256E0,3.208050251E0,1.075950027E0
1.872433347E0,-8.442000389E0,3.403950214E0,1.175999999E0
1.874966868E0,-8.266950607E0,3.544950247E0,1.336950064E0
1.877500636E0,-8.016000748E0,3.756000280E0,1.444050074E0
1.880034253E0,-7.932000160E0,3.859050274E0,1.488000035E0
1.882567792E0,-7.884000301E0,3.952950239E0,1.497000098E0
1.885101549E0,-7.683000565E0,4.054950237E0,1.585950017E0
1.887635166E0,-7.717050552E0,4.044000149E0,1.662000060E0
1.890168933E0,-7.666050434E0,4.084050179E0,1.705050111E0
1.892702474E0,-7.626000404E0,4.117949963E0,1.701000094E0
1.895236092E0,-7.729050159E0,4.072050095E0,1.690950036E0
1.897769861E0,-7.759950161E0,3.996000290E0,1.669950128E0
1.900303479E0,-7.843950272E0,3.981000185E0,1.528050065E0
1.902837246E0,-8.095050812E0,3.747000217E0,1.531050086E0
1.905370796E0,-8.381999969E0,3.447000265E0,1.471050024E0
1.907904409E0,-8.614950180E0,3.294000149E0,1.336950064E0
1.910438178E0,-8.857050896E0,3.181050062E0,1.204950094E0
1.912971719E0,-8.929050446E0,3.058950186E0,1.036949992E0
1.915505318E0,-9.082050323E0,3.009000063E0,9.439500570E-1
1.918039087E0,-9.070050240E0,2.956050158E0,8.530500531E-1
1.920572628E0,-9.039000511E0,2.896050215E0,7.570500374E-1
1.923106472E0,-9.015000343E0,2.821950197E0,7.399500608E-1
1.925640026E0,-8.944950104E0,2.839050055E0,6.829500198E-1
1.928173642E0,-8.908950806E0,2.785950184E0,6.370500326E-1
1.930707409E0,-8.884950638E0,2.817000151E0,7.240500450E-1
1.933240949E0,-8.848950386E0,2.853000164E0,8.190000653E-1
1.935774563E0,-8.911950111E0,2.848050117E0,8.820000291E-1
1.938308332E0,-8.883000374E0,2.929950237E0,8.820000291E-1
1.940841950E0,-8.872950554E0,3.070950031E0,8.890500665E-1
1.943375488E0,-8.883000374E0,3.150000095E0,9.180000424E-1
1.945909245E0,-8.866050720E0,3.244050264E0,9.060000181E-1
1.948442863E0,-8.785050392E0,3.370950222E0,9.439500570E-1
1.950976401E0,-8.737050056E0,3.402000189E0,1.003950000E0
1.953510245E0,-8.581050873E0,3.562050104E0,1.030050039E0
1.956043758E0,-8.635950089E0,3.576000214E0,1.150050044E0
1.958577525E0,-8.754000664E0,3.616950274E0,1.192950010E0
1.961111142E0,-8.869050026E0,3.622050285E0,1.297950029E0
1.963644681E0,-8.964000702E0,3.576000214E0,1.341000080E0
1.966178467E0,-9.051000595E0,3.505050182E0,1.320000052E0
1.968712084E0,-9.168000221E0,3.411000252E0,1.324950099E0
1.971245852E0,-9.229950905E0,3.378000259E0,1.261950016E0
1.973779392E0,-9.288000107E0,3.291000128E0,1.252950072E0
1.976313011E0,-9.340050697E0,3.277050257E0,1.246050000E0
1.978846780E0,-9.381000519E0,3.256050110E0,1.225950003E0
1.981380397E0,-9.361950874E0,3.208050251E0,1.288950086E0
1.983914164E0,-9.433950424E0,3.190950155E0,1.231050014E0
1.986447714E0,-9.442950249E0,3.136050224E0,1.246050000E0
1.988981327E0,-9.397950172E0,3.064050198E0,1.183050036E0
1.991515096E0,-9.256950378E0,3.021000147E0,1.087950110E0
1.994048637E0,-9.453000069E0,2.913000107E0,1.135050058E0
1.996582274E0,-9.532050133E0,2.917950153E0,1.174050093E0
1.999116044E0,-9.472050667E0,3.006000042E0,1.222050071E0
2.001649661E0,-9.517950058E0,3.064050198E0,1.249950051E0
2.004183199E0,-9.592050552E0,3.082950115E0,1.260000110E0
2.006716982E0,-9.661050797E0,3.166950226E0,1.294050097E0
2.009250599E0,-9.798000336E0,3.210000038E0,1.240950108E0
2.011784366E0,-9.871950150E0,3.199950218E0,1.168950081E0
2.014317984E0,-9.891000748E0,3.241050243E0,1.167000055E0
2.016851502E0,-9.987000465E0,3.244050264E0,1.060950041E0
2.019385269E0,-9.997050285E0,3.258000135E0,9.970500469E-1
2.021918887E0,-9.961050034E0,3.306000233E0,9.559500217E-1
2.024452425E0,-9.990000725E0,3.306000233E0,9.370500445E-1
2.026986192E0,-9.990000725E0,3.330000162E0,9.289500713E-1
2.029519810E0,-9.990000725E0,3.310950041E0,9.510000348E-1
2.032053577E0,-9.987000465E0,3.315000057E0,1.042050004E0
2.034587195E0,-1.006095028E1,3.327000141E0,1.032000065E0
2.037120743E0,-1.012605095E1,3.358950138E0,1.024950027E0
2.039654510E0,-1.010400009E1,3.418050051E0,1.044000030E0
2.042188128E0,-1.011405087E1,3.457050085E0,1.090050101E0
2.044721666E0,-9.987000465E0,3.495000124E0,1.119000077E0
2.047255438E0,-9.841050148E0,3.514050245E0,1.120950103E0
2.049789056E0,-9.621000290E0,3.567000151E0,1.120950103E0
2.052322823E0,-9.442950249E0,3.591000080E0,1.270050049E0
2.054856363E0,-9.256950378E0,3.574050188E0,1.392000079E0
2.057389977E0,-9.098999977E0,3.538050175E0,1.476000071E0
2.059923746E0,-9.024000168E0,3.507000208E0,1.477950096E0
2.062457286E0,-8.883000374E0,3.466050148E0,1.459050059E0
2.064991131E0,-8.739000320E0,3.462000132E0,1.384950042E0
2.067524680E0,-8.608050346E0,3.427950144E0,1.401000023E0
2.070058296E0,-8.548050880E0,3.414000273E0,1.495050073E0
2.072592063E0,-8.406000137E0,3.438000202E0,1.588050127E0
2.075125603E0,-8.430000305E0,3.399000168E0,1.561950088E0
2.077659232E0,-8.494950294E0,3.451950073E0,1.570950031E0
2.080193001E0,-8.599950790E0,3.442050219E0,1.570950031E0
2.082726618E0,-8.773050308E0,3.409050226E0,1.567050099E0
2.085260157E0,-9.048000336E0,3.426000118E0,1.534950018E0
2.087793953E0,-9.237000465E0,3.471000195E0,1.465950012E0
2.090327570E0,-9.436050415E0,3.481050253E0,1.483050108E0
2.092861109E0,-9.538950920E0,3.544950247E0,1.513950109E0
2.095394953E0,-9.645000458E0,3.583950281E0,1.465950012E0
2.097928512E0,-9.748050690E0,3.598050117E0,1.492050052E0
2.100462280E0,-9.829050064E0,3.595950127E0,1.452000022E0
2.102995897E0,-9.847950935E0,3.553050280E0,1.401000023E0
2.105529436E0,-9.906000137E0,3.511950254E0,1.353000045E0
2.108063188E0,-9.939000130E0,3.439950228E0,1.288950086E0
2.110596805E0,-9.937050819E0,3.409050226E0,1.192950010E0
2.113130344E0,-9.859950066E0,3.427950144E0,1.179000020E0
2.115664188E0,-9.754950523E0,3.435000181E0,1.155000091E0
2.118197714E0,-9.685050011E0,3.438000202E0,1.216950059E0
2.120731481E0,-9.573000908E0,3.466050148E0,1.249950051E0
2.123265099E0,-9.532050133E0,3.541050196E0,1.284000039E0
2.125798866E0,-9.403050423E0,3.607950211E0,1.303050041E0
2.128332416E0,-9.211050034E0,3.664950132E0,1.222050071E0
2.130866029E0,-9.051000595E0,3.663000107E0,1.188000083E0
2.133399798E0,-8.773050308E0,3.720000267E0,1.090050101E0
2.135933416E0,-8.851950645E0,3.604950190E0,1.144950032E0
2.138466964E0,-9.000000000E0,3.508950233E0,1.216950059E0
2.141000731E0,-9.094050407E0,3.478050232E0,1.204950094E0
2.143534272E0,-9.163050652E0,3.514050245E0,1.192950010E0
2.146068116E0,-9.240000725E0,3.502050161E0,1.203000069E0
2.148601670E0,-9.259050369E0,3.463950157E0,1.267050028E0
2.151135286E0,-9.235050201E0,3.493050098E0,1.327050090E0
2.153669053E0,-9.240000725E0,3.535950184E0,1.317000031E0
2.156202593E0,-9.196950912E0,3.565050125E0,1.372950077E0
2.158736203E0,-9.160950661E0,3.610050201E0,1.432050109E0
2.161269972E0,-9.169950485E0,3.556950092E0,1.429950118E0
2.163803590E0,-9.220950127E0,3.520950079E0,1.417950034E0
2.166337128E0,-9.345000267E0,3.571950197E0,1.312950015E0
2.168870875E0,-9.379050255E0,3.574050188E0,1.387050033E0
2.171404493E0,-9.678000450E0,3.421050072E0,1.464000106E0
2.173938260E0,-9.835950851E0,3.409050226E0,1.432050109E0
2.176471877E0,-9.858000755E0,3.433050156E0,1.365000010E0
2.179005440E0,-9.853050232E0,3.457050085E0,1.336950064E0
2.181539207E0,-9.760050774E0,3.541050196E0,1.297950029E0
2.184072824E0,-9.630000114E0,3.628950119E0,1.300950050E0
2.186606363E0,-9.433950424E0,3.724950075E0,1.261950016E0
2.189140116E0,-9.340050697E0,3.816000223E0,1.249950051E0
2.191673733E0,-9.280950546E0,3.871050119E0,1.258050084E0
2.194207501E0,-9.252000809E0,3.876000166E0,1.261950016E0
2.196741041E0,-9.196950912E0,3.969000101E0,1.212000012E0
2.199274645E0,-9.168000221E0,3.969000101E0,1.231050014E0
2.201808414E0,-9.100950241E0,3.960000277E0,1.309950113E0
2.204342031E0,-9.004950523E0,4.093950272E0,1.246050000E0
2.206875798E0,-9.019950867E0,3.916950226E0,1.405950069E0
2.209409344E0,-9.052950859E0,3.804000139E0,1.413000107E0
2.211942957E0,-9.034049988E0,3.739050150E0,1.336950064E0
2.214476726E0,-9.028950691E0,3.588000059E0,1.258050084E0
2.217010267E0,-9.082050323E0,3.502050161E0,1.401000023E0
2.219543885E0,-9.007950783E0,3.567000151E0,1.501950026E0
2.222077655E0,-8.926050186E0,3.517050266E0,1.408050060E0
2.224611272E0,-8.860950470E0,3.463950157E0,1.282050014E0
2.227145039E0,-8.698950768E0,3.487950087E0,1.152000070E0
2.229678575E0,-8.713050842E0,3.346950054E0,1.224000096E0
2.232212188E0,-8.683950424E0,3.172050238E0,1.228950024E0
2.234745957E0,-8.593050003E0,3.190950155E0,1.213950038E0
2.237279575E0,-8.494950294E0,3.322950125E0,1.171050072E0
2.239813118E0,-8.356050491E0,3.337050200E0,1.248000026E0
2.242346885E0,-8.341950417E0,3.294000149E0,1.336950064E0
2.244880503E0,-8.442000389E0,3.367950201E0,1.449000120E0
2.247414041E0,-8.433000565E0,3.499950171E0,1.465950012E0
2.249947784E0,-8.401950836E0,3.598050117E0,1.411050081E0
2.252481402E0,-8.404050827E0,3.706050158E0,1.351050019E0
2.255015169E0,-8.497050285E0,3.828000069E0,1.456050038E0
2.257548787E0,-8.578950882E0,4.008000374E0,1.561950088E0
2.260082286E0,-8.554950714E0,3.900000095E0,1.561950088E0
2.262616053E0,-8.563950539E0,3.948000193E0,1.594950080E0
2.265149671E0,-8.703000069E0,3.988050222E0,1.648050070E0
2.267683209E0,-8.887950897E0,3.876000166E0,1.674000025E0
2.270216971E0,-8.517000198E0,3.636000156E0,1.389000058E0
2.272750589E0,-8.179050446E0,3.520950079E0,1.126049995E0
2.275284356E0,-8.128950119E0,3.484950066E0,1.140000105E0
2.277817973E0,-8.128950119E0,3.612000227E0,1.306050062E0
2.280351527E0,-8.361000061E0,3.543000221E0,1.674000025E0
2.282885294E0,-8.674950600E0,3.615000248E0,1.864050031E0
2.285418911E0,-9.084000587E0,3.708000183E0,1.725000024E0
2.287952679E0,-9.333000183E0,3.859050274E0,1.492050052E0
2.290486214E0,-9.646950722E0,3.856950283E0,1.294050097E0
2.293019828E0,-9.862950325E0,3.724950075E0,1.144950032E0
2.295553597E0,-1.007100010E1,3.562050104E0,1.102050066E0
2.298087214E0,-1.029105091E1,3.337050200E0,1.047000051E0
2.300620719E0,-1.037505054E1,3.313050270E0,9.079500437E-1
2.303154486E0,-1.022400093E1,3.318000078E0,7.690500617E-1
2.305688103E0,-9.963000298E0,3.283950090E0,7.740000486E-1
2.308221870E0,-9.898050308E0,3.193050146E0,8.959500194E-1
2.310755382E0,-9.867000580E0,3.202950239E0,9.289500713E-1
2.313288995E0,-9.739950180E0,3.220050097E0,9.289500713E-1
2.315822765E0,-9.616050720E0,3.280050039E0,9.439500570E-1
2.318356382E0,-9.693000793E0,3.250950098E0,9.490500689E-1
2.320889906E0,-9.637050629E0,3.310950041E0,9.679500461E-1
2.323423674E0,-9.604050636E0,3.331950188E0,9.919500351E-1
2.325957291E0,-9.514950752E0,3.318000078E0,1.018050075E0
2.328491058E0,-9.372000694E0,3.303000212E0,9.580500722E-1
2.331024613E0,-9.525000572E0,3.318000078E0,1.003950000E0
2.333558226E0,-9.534000397E0,3.349050045E0,1.152000070E0
2.336091995E0,-9.489000320E0,3.385050058E0,1.156949997E0
2.338625613E0,-9.520050049E0,3.433050156E0,1.228950024E0
2.341159151E0,-9.477000237E0,3.487950087E0,1.195050001E0
2.343692918E0,-9.417000771E0,3.402000189E0,1.156949997E0
2.346226536E0,-9.436050415E0,3.313050270E0,1.123050094E0
2.348760303E0,-9.502950668E0,3.235950232E0,1.084950089E0
2.351293830E0,-9.589950562E0,3.109050035E0,1.095000029E0
2.353827443E0,-9.546000481E0,3.040050030E0,1.032000065E0
2.356361212E0,-9.469950676E0,3.037950039E0,9.990000725E-1
2.358894830E0,-9.501000404E0,2.965950251E0,1.066050053E0
2.361428349E0,-9.457950592E0,2.986950159E0,1.071000099E0
2.363962116E0,-9.405000687E0,3.006000042E0,1.116000056E0
2.366495734E0,-9.367050171E0,3.064050198E0,1.128000021E0
2.369029501E0,-9.372000694E0,3.112050056E0,1.099950075E0
2.371563020E0,-9.345000267E0,3.124050140E0,1.126049995E0
2.374096634E0,-9.336000443E0,3.129000187E0,1.114050031E0
2.376630403E0,-9.300000191E0,3.112050056E0,1.083000064E0
2.379164020E0,-9.265950203E0,3.054000139E0,1.044000030E0
2.381697550E0,-9.192000389E0,3.037950039E0,9.730500579E-1
2.384231317E0,-9.076950073E0,3.025950193E0,9.289500713E-1
2.386764935E0,-8.875950813E0,3.088050127E0,8.770500422E-1
2.389298473E0,-8.657999992E0,3.198000193E0,9.409500360E-1
2.391832308E0,-8.485050201E0,3.198000193E0,1.047000051E0
2.394365849E0,-8.317950249E0,3.322950125E0,1.087950110E0
2.396899616E0,-8.221950531E0,3.427950144E0,1.152000070E0
2.399433233E0,-8.119050026E0,3.499950171E0,1.167000055E0
2.401966785E0,-8.145000458E0,3.588000059E0,1.152000070E0
2.404500552E0,-8.181000710E0,3.648000240E0,1.143000007E0
2.407034169E0,-8.269950867E0,3.694050074E0,1.171050072E0
2.409567937E0,-8.466000557E0,3.718050241E0,1.246050000E0
2.412101554E0,-8.683950424E0,3.688950062E0,1.279050112E0
2.414635092E0,-8.896950722E0,3.592950106E0,1.207050085E0
2.417168860E0,-9.124950409E0,3.529050112E0,1.150050044E0
2.419702400E0,-9.288000107E0,3.415950060E0,1.035000086E0
2.422236254E0,-9.376049995E0,3.378000259E0,1.012950063E0
2.424769795E0,-9.340050697E0,3.351000071E0,9.850500226E-1
2.427303410E0,-9.277950287E0,3.370950222E0,1.078050017E0
2.429837177E0,-9.180000305E0,3.387000084E0,1.078050017E0
2.432370723E0,-9.156000137E0,3.394050121E0,1.032000065E0
2.434904336E0,-9.172950745E0,3.390000105E0,1.059000015E0
2.437438105E0,-9.324000359E0,3.343950272E0,1.018050075E0
2.439971723E0,-9.349950790E0,3.198000193E0,1.003950000E0
2.442505490E0,-9.526950836E0,3.148050070E0,1.059000015E0
2.445039031E0,-9.787950516E0,3.006000042E0,9.820500612E-1
2.447572644E0,-9.862950325E0,2.817000151E0,9.409500360E-1
2.450106413E0,-9.903000832E0,2.772000074E0,8.959500194E-1
2.452640031E0,-9.819000244E0,2.749950171E0,8.719500303E-1
2.455173569E0,-9.673050880E0,2.805000067E0,9.030000567E-1
2.457707336E0,-9.405000687E0,2.899050236E0,8.940000534E-1
2.460240954E0,-9.096000671E0,3.102000237E0,8.860500455E-1
2.462774740E0,-8.766000748E0,3.232050180E0,9.559500217E-1
2.465308280E0,-8.584050179E0,3.610050201E0,1.143000007E0
2.467841894E0,-8.657999992E0,3.919050217E0,1.444050074E0
2.470375663E0,-8.650950432E0,4.033950329E0,1.591050029E0
2.472909275E0,-8.370000839E0,3.937950134E0,1.509000063E0
2.475442814E0,-7.963050365E0,4.036050320E0,1.291050076E0
2.477976581E0,-8.109000206E0,4.113000393E0,1.357950091E0
2.480510198E0,-8.490000725E0,4.170000076E0,1.408050060E0
2.483044005E0,-9.003000259E0,4.621050358E0,1.429950118E0
2.485577545E0,-9.625050545E0,4.699950218E0,1.468050122E0
2.488111159E0,-1.003005028E1,4.170000076E0,1.317000031E0
2.490644928E0,-9.658950806E0,3.664950132E0,6.919500232E-1
2.493178506E0,-8.980950356E0,3.379950047E0,3.280500174E-1
2.495712045E0,-8.657999992E0,3.235950232E0,9.105000645E-2
2.498245812E0,-8.392050743E0,3.085950136E0,1.729500145E-1
2.500779429E0,-8.296050072E0,3.286950111E0,6.370500326E-1
2.503313178E0,-8.608050346E0,3.358950138E0,1.123050094E0
2.505846718E0,-8.818050385E0,3.426000118E0,1.051950097E0
2.508380331E0,-9.237000465E0,3.319950104E0,7.470000386E-1
2.510914101E0,-9.127050400E0,3.688950062E0,3.859500289E-1
2.513447660E0,-9.106050491E0,3.826050282E0,3.550500274E-1
2.515981274E0,-9.168000221E0,3.814050198E0,3.589500189E-1
2.518515043E0,-9.084000587E0,3.864000082E0,3.400500119E-1
2.521048660E0,-9.208950043E0,3.699000120E0,4.980000257E-1
2.523582233E0,-8.950050354E0,3.744000196E0,5.059500337E-1
2.526116000E0,-8.896950722E0,3.889950275E0,5.410500169E-1
2.528649617E0,-9.015000343E0,3.885000229E0,6.439500451E-1
2.531183384E0,-8.940000534E0,3.759000063E0,6.540000439E-1
2.533717036E0,-8.563950539E0,3.921000242E0,4.219500124E-1
2.536250574E0,-8.449950218E0,4.126950264E0,3.360000253E-1
2.538784342E0,-8.464050293E0,4.144050121E0,4.069500268E-1
2.541317959E0,-8.505000114E0,4.114950180E0,5.269500017E-1
2.543851502E0,-8.682000160E0,4.015050411E0,5.610000491E-1
2.546385270E0,-8.869050026E0,3.844950199E0,5.220000148E-1
2.548918887E0,-8.955000877E0,3.744000196E0,4.669500291E-1
2.551452654E0,-8.919000626E0,3.720000267E0,3.570000231E-1
2.553986171E0,-8.881050110E0,3.598050117E0,2.590500116E-1
2.556520015E0,-8.718000412E0,3.511950254E0,2.659500241E-1
2.559053555E0,-8.410950661E0,3.526050091E0,2.160000056E-1
2.561587171E0,-8.004000664E0,3.544950247E0,1.750500053E-1
2.564120928E0,-7.756950378E0,3.427950144E0,2.659500241E-1
2.566654468E0,-7.807950497E0,3.354000092E0,4.819500148E-1
2.569188082E0,-7.975050449E0,3.462000132E0,4.459500313E-1
2.571721851E0,-7.870050430E0,3.445050240E0,3.190500140E-1
2.574255392E0,-8.020950317E0,3.387000084E0,4.339500070E-1
2.576789236E0,-8.341950417E0,3.358950138E0,5.490000248E-1
2.579322776E0,-8.512050629E0,3.423000097E0,5.730000138E-1
2.581856392E0,-8.734950066E0,3.459000111E0,5.490000248E-1
2.584389930E0,-8.791950226E0,3.571950197E0,4.980000257E-1
2.586923697E0,-8.670000076E0,3.684000254E0,4.740000367E-1
2.589457315E0,-8.614950180E0,3.778050184E0,6.330000162E-1
2.591991082E0,-8.572050095E0,3.919050217E0,7.999500632E-1
2.594524699E0,-8.538000107E0,3.937950134E0,9.030000567E-1
2.597058467E0,-8.653050423E0,3.952950239E0,9.769500494E-1
2.599592007E0,-8.761050224E0,3.900000095E0,1.072950006E0
2.602125620E0,-8.944950104E0,3.826050282E0,1.152000070E0
2.604659152E0,-9.130050659E0,3.763050079E0,1.102050066E0
2.607192919E0,-9.094050407E0,3.699000120E0,1.108950019E0
2.609726536E0,-9.157950401E0,3.636000156E0,1.071000099E0
2.612260304E0,-9.253950119E0,3.624000072E0,1.152000070E0
2.614793921E0,-9.373950005E0,3.604950190E0,1.120950103E0
2.617327460E0,-9.407999992E0,3.658050060E0,1.120950103E0
2.619861227E0,-9.373950005E0,3.676950216E0,1.083000064E0
2.622394844E0,-9.379050255E0,3.655950069E0,1.084950089E0
2.624928587E0,-9.276000023E0,3.706050158E0,1.140000105E0
2.627462128E0,-9.360000610E0,3.471000195E0,1.096950054E0
2.629995741E0,-9.475050926E0,3.349050045E0,1.092000008E0
2.632529511E0,-9.685050011E0,3.343950272E0,1.114050031E0
2.635063176E0,-9.807000160E0,3.378000259E0,1.087950110E0
2.637596943E0,-1.007295036E1,3.399000168E0,9.460500479E-1
2.640130484E0,-1.015995026E1,3.499950171E0,9.630000591E-1
2.642664097E0,-1.041105080E1,3.646050215E0,9.559500217E-1
2.645197832E0,-1.056705093E1,3.747000217E0,9.630000591E-1
2.647731373E0,-1.069605064E1,3.913950205E0,8.599500656E-1
2.650264986E0,-1.080105019E1,4.009950161E0,8.170500398E-1
2.652798755E0,-1.085895061E1,4.021950245E0,7.930500507E-1
2.655332402E0,-1.087605095E1,3.993000269E0,7.570500374E-1
2.657865940E0,-1.090005016E1,3.973950148E0,7.069500089E-1
2.660399707E0,-1.089195061E1,3.889950275E0,6.420000196E-1
2.662933325E0,-1.094295025E1,3.949950218E0,6.880500317E-1
2.665467082E0,-1.099095058E1,3.841950178E0,6.400500536E-1
2.668000699E0,-1.106205082E1,3.759000063E0,6.180000305E-1
2.670534238E0,-1.109100056E1,3.648000240E0,5.560500026E-1
2.673068005E0,-1.100700092E1,3.591000080E0,5.389500260E-1
2.675601609E0,-1.098300076E1,3.490050077E0,5.149500370E-1
2.678135147E0,-1.082295036E1,3.397050142E0,3.910500109E-1
2.680668914E0,-1.044195080E1,3.426000118E0,3.040500283E-1
2.683202532E0,-9.967950821E0,3.517050266E0,2.970000207E-1
2.685736313E0,-9.511050224E0,3.648000240E0,3.790500164E-1
2.688269853E0,-9.157950401E0,3.895050287E0,5.850000381E-1
2.690803698E0,-8.950050354E0,4.126950264E0,7.519500256E-1
2.693337204E0,-8.938050270E0,4.342950344E0,9.030000567E-1
2.695870822E0,-9.087000847E0,4.459950447E0,9.610500336E-1
2.698404441E0,-9.405000687E0,4.539000034E0,9.649500251E-1
2.700981202E0,-9.673050880E0,4.446000099E0,8.479500413E-1
2.703471742E0,-9.846000671E0,4.252050400E0,6.660000086E-1
2.706005510E0,-9.949050903E0,4.069950104E0,5.680500269E-1
2.708539048E0,-9.973050117E0,3.916950226E0,5.869500041E-1
2.711072908E0,-9.841050148E0,3.727050066E0,4.819500148E-1
2.713606447E0,-9.676050186E0,3.529050112E0,4.170000255E-1
2.716140062E0,-9.440999985E0,3.390000105E0,4.290000200E-1
2.718673831E0,-9.247050285E0,3.334950209E0,3.360000253E-1
2.721207483E0,-8.983950615E0,3.330000162E0,2.250000089E-1
2.723741021E0,-8.778000832E0,3.394050121E0,2.040000111E-1
2.726274789E0,-8.799000740E0,3.487950087E0,2.299500108E-1
2.728808406E0,-8.976000786E0,3.565050125E0,2.419500053E-1
2.731341939E0,-9.268950462E0,3.660000086E0,1.005000062E-2
2.733875707E0,-9.304950714E0,3.706050158E0,-6.105000153E-2
2.736409324E0,-9.289950371E0,3.799050093E0,-1.305000018E-2
2.738943091E0,-9.139050484E0,3.952950239E0,1.200000010E-2
2.741476627E0,-9.094050407E0,4.027050018E0,-1.260000020E-1
2.744010240E0,-9.738000870E0,4.165950298E0,-2.959500253E-1
2.746544009E0,-1.045695019E1,4.339950085E0,-1.860000044E-1
2.749077627E0,-9.558000565E0,4.218000412E0,-2.295000106E-2
2.751611413E0,-8.761050224E0,3.993000269E0,-5.569500327E-1
2.754144953E0,-8.513999939E0,3.684000254E0,-8.299500346E-1
2.756678567E0,-8.500050545E0,3.559950113E0,-6.330000162E-1
2.759212336E0,-8.584050179E0,3.723000288E0,-1.980000138E-1
2.761745896E0,-8.896950722E0,3.948000193E0,1.270500124E-1
2.764279509E0,-9.241950035E0,4.093950272E0,6.495000422E-2
2.766813278E0,-9.580050468E0,4.218000412E0,-1.860000044E-1
2.769346896E0,-9.865050316E0,4.326000214E0,-3.049500287E-1
2.771880463E0,-1.000395012E1,4.432050228E0,-2.670000196E-1
2.774414230E0,-1.020300007E1,4.443000317E0,-2.650500238E-1
2.776947848E0,-1.017600060E1,4.471950054E0,-2.740500271E-1
2.779481615E0,-1.010400009E1,4.399950027E0,-3.340500295E-1
2.782015227E0,-1.004895020E1,4.410000324E0,-2.959500253E-1
2.784548766E0,-9.930000305E0,4.465050220E0,-3.130500019E-1
2.787082533E0,-9.853050232E0,4.441050053E0,-3.360000253E-1
2.789616150E0,-9.811950684E0,4.498950005E0,-4.039500058E-1
2.792149713E0,-9.790950775E0,4.630050182E0,-3.960000277E-1
2.794683480E0,-9.823950768E0,4.695000172E0,-3.600000143E-1
2.797217097E0,-9.799950600E0,4.645050049E0,-3.220500052E-1
2.799750865E0,-9.774000168E0,4.578000069E0,-2.770500183E-1
2.802284449E0,-9.793050766E0,4.554000378E0,-2.479500175E-1
2.804817988E0,-9.645000458E0,4.563000202E0,-2.890500128E-1
2.807351755E0,-9.448050499E0,4.599000454E0,-2.809500098E-1
2.809885372E0,-9.295050621E0,4.627950191E0,-1.690500081E-1
2.812419153E0,-9.075000763E0,4.693050385E0,-1.930500120E-1
2.814952694E0,-8.883000374E0,4.681050301E0,-1.039500013E-1
2.817486307E0,-8.713050842E0,4.573050022E0,-9.900000691E-2
2.820020077E0,-8.626950264E0,4.530000210E0,-1.860000044E-1
2.822553603E0,-8.521050453E0,4.482000351E0,-2.809500098E-1
2.825087447E0,-8.485050201E0,4.294950008E0,-4.420500100E-1
2.827620988E0,-8.629050255E0,4.033950329E0,-5.640000105E-1
2.830154603E0,-8.742000580E0,3.850050211E0,-7.459500432E-1
2.832688403E0,-8.718000412E0,3.805950165E0,-8.110500574E-1
2.835221944E0,-8.770050049E0,3.781950235E0,-7.890000343E-1
2.837755557E0,-9.000000000E0,3.652950287E0,-8.149500489E-1
2.840289326E0,-9.127050400E0,3.622050285E0,-6.840000153E-1
2.842822940E0,-9.340050697E0,3.592950106E0,-5.520000458E-1
2.845356478E0,-9.592050552E0,3.658050060E0,-4.969500303E-1
2.847890245E0,-9.781050682E0,3.792000294E0,-5.299500227E-1
2.850423863E0,-9.939000130E0,3.907050133E0,-5.640000105E-1
2.852957606E0,-1.012800026E1,3.957000256E0,-5.539500117E-1
2.855491223E0,-1.025100040E1,4.003050327E0,-4.510500133E-1
2.858024762E0,-1.037295055E1,3.996000290E0,-3.919500113E-1
2.860558529E0,-1.032705021E1,4.012050152E0,-4.470000267E-1
2.863092162E0,-1.009500027E1,4.138950348E0,-3.820500076E-1
2.865625700E0,-9.742950439E0,4.256999969E0,-2.449500114E-1
2.868159467E0,-9.324000359E0,4.470000267E0,-1.860000044E-1
2.870693085E0,-8.754000664E0,4.708950043E0,-3.000000119E-2
2.873226837E0,-8.289000511E0,4.911000252E0,1.249500066E-1
2.875760377E0,-7.683000565E0,4.993950367E0,2.880000174E-1
2.878293991E0,-7.197000504E0,5.064000130E0,3.570000231E-1
2.880827760E0,-7.117950439E0,4.771950245E0,4.459500313E-1
2.883361363E0,-6.712950230E0,4.903050423E0,1.099500060E-1
2.885895131E0,-6.541050434E0,4.975050449E0,-1.995000057E-2
2.888428671E0,-6.478050232E0,5.071050167E0,1.939500123E-1
2.890962284E0,-6.289050102E0,5.245950222E0,3.600000218E-2
2.893496044E0,-6.426000118E0,5.361000061E0,1.420500129E-1
2.896029584E0,-7.101000309E0,5.326950073E0,4.095000029E-2
2.898563198E0,-7.567950249E0,4.690050125E0,-3.409500122E-1
2.901096967E0,-6.687000275E0,5.047050476E0,-1.251000047E0
2.903630584E0,-6.792000294E0,5.575950146E0,-9.619500637E-1
2.906164123E0,-6.924000263E0,5.952000141E0,-2.070000172E-1
2.908697890E0,-6.853950500E0,5.991000175E0,-2.670000196E-1
2.911231507E0,-7.575000286E0,4.786050320E0,-4.750500321E-1
2.913765256E0,-7.771950245E0,2.310000181E0,-8.200500607E-1
2.916298873E0,-6.724950314E0,2.416950226E0,-1.462050080E0
2.918832411E0,-7.444050312E0,2.820000172E0,-1.009050012E0
2.921366179E0,-7.365000248E0,3.030000210E0,-7.770000100E-1
2.923899777E0,-6.829950333E0,3.877950191E0,-1.021050096E0
2.926433315E0,-7.072050571E0,3.505050182E0,-1.036050081E0
2.928967083E0,-6.547950268E0,4.044000149E0,-1.660950065E0
2.931500700E0,-6.823050499E0,3.957000256E0,-1.263000011E0
2.934034447E0,-6.399000168E0,4.852950096E0,-1.692000031E0
2.936568065E0,-7.264050484E0,3.793950081E0,-8.389500380E-1
2.939101832E0,-6.876000404E0,3.687000275E0,-1.516950130E0
2.941635372E0,-6.511950493E0,4.539000034E0,-1.824000120E0
2.944168996E0,-7.081950188E0,4.201950073E0,-1.242000103E0
2.946702765E0,-6.346950531E0,4.894050121E0,-1.813950062E0
2.949236306E0,-6.808950424E0,4.870050430E0,-1.423950076E0
2.951769919E0,-7.563000202E0,4.807950020E0,-1.004999995E0
2.954303688E0,-6.973950386E0,4.993950367E0,-1.218000054E0
2.956837306E0,-8.389950752E0,4.591950417E0,-1.290000081E0
2.959370844E0,-7.156050205E0,4.870050430E0,-1.279950023E0
2.961904611E0,-8.859000206E0,4.740000248E0,-1.363950014E0
2.964438215E0,-7.603950500E0,4.800000191E0,-1.381050110E0
2.966971982E0,-9.685050011E0,4.381050110E0,-1.267950058E0
2.969505599E0,-8.494950294E0,4.804950237E0,-1.528950095E0
2.972039138E0,-9.951000214E0,4.386000156E0,-1.495950103E0
2.974572890E0,-7.594050407E0,5.289000034E0,-1.723050117E0
2.977106507E0,-9.835950851E0,4.443000317E0,-1.311000109E0
2.979640046E0,-8.148000717E0,5.290950298E0,-1.714050055E0
2.982173813E0,-9.063000679E0,4.942050457E0,-1.111950040E0
2.984707435E0,-9.870000839E0,4.875000000E0,-1.860000134E0
2.987241203E0,-8.763000488E0,4.980000019E0,-1.603050113E0
2.989774820E0,-9.304950714E0,5.059050083E0,-2.442000151E0
2.992308359E0,-7.341000557E0,5.586000443E0,-1.512000084E0
2.994842136E0,-8.517000198E0,4.339950085E0,-1.837950110E0
2.997375753E0,-7.650000572E0,4.924950123E0,-3.330000162E0
2.999909520E0,-8.221950531E0,5.527950287E0,-2.500500083E-1
3.002443061E0,-9.645000458E0,4.462950230E0,-3.889500201E-1
3.004976688E0,-1.027005005E1,3.847050190E0,-2.923050165E0
3.007510458E0,-8.065950394E0,5.077950478E0,-2.575950146E0
3.010043998E0,-9.790950775E0,4.446000099E0,-1.362000108E0
3.012577842E0,-1.116795063E1,3.106950045E0,-2.485050201E0
3.015111378E0,-7.426950455E0,4.363950253E0,-4.009950161E0
3.017644993E0,-7.828950405E0,5.028000355E0,-1.741950035E0
3.020178760E0,-8.344050407E0,4.441050053E0,-6.430500150E-1
3.022712301E0,-1.085895061E1,3.217050076E0,-2.820000172E0
3.025245909E0,-6.949950218E0,4.623000145E0,-3.378000259E0
3.027779678E0,-7.012050152E0,5.112000465E0,-1.704000115E0
3.030313296E0,-9.724050522E0,3.945000172E0,-3.820500076E-1
3.032846834E0,-1.030605030E1,3.256050110E0,-3.876000166E0
3.035380601E0,-7.326000214E0,4.827000141E0,-2.692950010E0
3.037914219E0,-8.323050499E0,4.438950062E0,-8.629500270E-1
3.040447757E0,-1.088805008E1,3.220050097E0,-1.965000153E0
3.042981601E0,-2.002050161E0,2.851050138E0,-3.261000156E0
3.045515161E0,4.369500279E-1,4.186950207E0,-3.409500122E-1
3.048048928E0,-3.372000217E0,5.521050453E0,4.305000231E-2
3.050582546E0,-5.856000423E0,6.184950352E0,-1.608000040E0
3.053116313E0,-9.526950836E0,5.892000198E0,-1.567950130E0
3.055649853E0,-1.244205093E1,4.501049995E0,-1.996050119E0
3.058183472E0,-8.287050247E0,3.373050213E0,-2.113950014E0
3.060717241E0,-5.710050106E0,4.117949963E0,-1.168050051E0
3.063250781E0,-5.992050171E0,4.750050068E0,-5.070000291E-1
3.065784626E0,-6.691950321E0,5.040000439E0,-7.579500079E-1
3.068318195E0,-7.336050510E0,5.044950008E0,-1.045050025E0
3.070851810E0,-7.539000511E0,4.848000050E0,-1.243950009E0
3.073385578E0,-7.150950432E0,4.642050266E0,-1.285050035E0
3.075919118E0,-6.955050468E0,4.462950230E0,-1.371000051E0
3.078452760E0,-7.150950432E0,4.234950066E0,-1.528950095E0
3.080986530E0,-7.501050472E0,4.000050068E0,-1.603050113E0
3.083520147E0,-7.812000275E0,3.892950296E0,-1.624950051E0
3.086053686E0,-8.065950394E0,3.865950108E0,-1.690050125E0
3.088587448E0,-8.248050690E0,3.838050127E0,-1.708950043E0
3.091121065E0,-8.296050072E0,3.876000166E0,-1.752000093E0
3.093654604E0,-8.365950584E0,3.859050274E0,-1.773000121E0
3.096188448E0,-8.425950050E0,3.852000237E0,-1.813950062E0
3.098722006E0,-8.184000015E0,3.889950275E0,-1.797000051E0
3.101255774E0,-7.980000496E0,3.913950205E0,-1.813950062E0
3.103789391E0,-7.810050488E0,3.889950275E0,-1.857000113E0
3.106322929E0,-7.650000572E0,3.871050119E0,-1.765950084E0
3.108856684E0,-7.756950378E0,3.832950115E0,-1.783050060E0
3.111390301E0,-7.936950207E0,3.708000183E0,-1.753950119E0
3.113924068E0,-8.350950241E0,3.576000214E0,-1.684950113E0
3.116457609E0,-9.232950211E0,3.375000238E0,-1.824000120E0
3.118991448E0,-8.085000038E0,3.652950287E0,-1.275000095E0
3.121524988E0,-7.300050259E0,4.170000076E0,-1.227000117E0
3.124058604E0,-8.160000801E0,4.234950066E0,-1.375950098E0
3.126592371E0,-1.095705032E1,3.334950209E0,-1.656000137E0
3.129125958E0,-8.851950645E0,3.811050177E0,-1.800000072E0
3.131659572E0,-7.060050488E0,4.788000107E0,-1.306050062E0
3.134193341E0,-7.198950291E0,5.148000240E0,-1.453050017E0
3.136726958E0,-7.153950214E0,5.275050163E0,-1.387950063E0
3.139260502E0,-7.377000332E0,5.107050419E0,-1.086000085E0
3.141794269E0,-7.354950428E0,4.764000416E0,-1.012050033E0
3.144327887E0,-7.252050400E0,4.441050053E0,-8.869500160E-1
3.146861425E0,-7.345050335E0,4.096050262E0,-8.830500245E-1
3.149395293E0,-7.729050159E0,3.868950129E0,-9.690000415E-1
3.151928834E0,-8.171999931E0,3.799050093E0,-1.099950075E0
3.154462601E0,-8.370000839E0,3.931050301E0,-1.267950058E0
3.156996218E0,-8.635950089E0,4.101000309E0,-1.345050097E0
3.159529757E0,-8.926050186E0,4.270950317E0,-1.338000059E0
3.162063524E0,-9.079050064E0,4.410000324E0,-1.299000025E0
3.164597141E0,-9.205950737E0,4.546050072E0,-1.311000109E0
3.167130909E0,-9.225000381E0,4.543950081E0,-1.326000094E0
3.169664468E0,-8.799000740E0,4.582050323E0,-1.444950104E0
3.172198081E0,-8.356050491E0,4.659000397E0,-1.620000124E0
3.174731851E0,-9.609000206E0,4.338000298E0,-1.524000049E0
3.177265468E0,-1.046595097E1,3.844950199E0,-1.287000060E0
3.179799254E0,-8.394000053E0,4.137000084E0,-1.932000041E0
3.182332795E0,-1.147200012E1,3.414000273E0,-1.234950066E0
3.184866408E0,-9.412050247E0,3.138000250E0,-2.623950243E0
3.187400177E0,-5.494050026E0,4.843050003E0,-2.449050188E0
3.189933708E0,-5.580000401E0,5.301000118E0,-2.260050058E0
3.192467321E0,-6.256050110E0,5.326950073E0,-1.893000126E0
3.195001091E0,-6.784950256E0,5.131050110E0,-1.477050066E0
3.197534708E0,-7.162950516E0,4.675950050E0,-1.156050086E0
3.200068500E0,-7.501050472E0,4.177950382E0,-1.093050003E0
3.202602118E0,-7.960950375E0,3.826050282E0,-1.254000068E0
3.205135656E0,-8.542950630E0,3.622050285E0,-1.603050113E0
3.207669423E0,-9.139050484E0,3.658050060E0,-1.957950115E0
3.210203026E0,-9.676050186E0,3.720000267E0,-2.157000065E0
3.212736564E0,-9.979950905E0,3.841950178E0,-2.154000044E0
3.215270331E0,-1.005195045E1,4.052999973E0,-2.053950071E0
3.217803949E0,-1.009005070E1,4.180050373E0,-2.047049999E0
3.220337716E0,-1.015200043E1,4.221000195E0,-2.049000025E0
3.222871256E0,-9.982050896E0,4.230000019E0,-1.999050140E0
3.225404870E0,-1.003500080E1,4.113000393E0,-1.984050035E0
3.227938639E0,-1.008105087E1,3.931050301E0,-2.023050070E0
3.230472256E0,-1.015995026E1,3.790050268E0,-2.025000095E0
3.233006024E0,-1.054800034E1,3.538050175E0,-2.080049992E0
3.235539564E0,-1.100505066E1,3.259950161E0,-2.110949993E0
3.238073178E0,-9.558000565E0,3.478050232E0,-1.696950078E0
3.240606933E0,-1.329705048E1,3.529050112E0,-9.420000315E-1
3.243140473E0,-1.120395088E1,2.698050022E0,-2.407950163E0
3.245674087E0,-4.888050079E0,4.863000393E0,-1.429050088E0
3.248207856E0,-5.250000477E0,5.682000160E0,-1.845000029E0
3.250741472E0,-6.373050213E0,5.952000141E0,-1.804950118E0
3.253275239E0,-6.919050217E0,5.548050404E0,-1.297050118E0
3.255808780E0,-7.180050373E0,4.921950340E0,-1.099950075E0
3.258342393E0,-7.495950222E0,4.185000420E0,-1.230000019E0
3.260876163E0,-7.972950459E0,3.583950281E0,-1.314000010E0
3.263409780E0,-8.470950127E0,3.235950232E0,-1.648950100E0
3.265943318E0,-8.968950272E0,3.174000263E0,-1.792950034E0
3.268477086E0,-9.253950119E0,3.268050194E0,-2.047049999E0
3.271010694E0,-9.336000443E0,3.268050194E0,-2.269050121E0
3.273544233E0,-9.301950455E0,3.318000078E0,-2.323950052E0
3.276078000E0,-9.273000717E0,3.315000057E0,-2.367000103E0
3.278611617E0,-9.223050117E0,3.394050121E0,-2.407950163E0
3.281145369E0,-9.148950577E0,3.409050226E0,-2.446050167E0
3.283678987E0,-8.992950439E0,3.426000118E0,-2.407950163E0
3.286212525E0,-8.983950615E0,3.462000132E0,-2.391000032E0
3.288746292E0,-8.902050018E0,3.595950127E0,-2.391000032E0
3.291279881E0,-8.703000069E0,3.684000254E0,-2.379000187E0
3.293813648E0,-8.635950089E0,3.742050171E0,-2.341050148E0
3.296347189E0,-9.453000069E0,3.670050144E0,-2.386950016E0
3.298880802E0,-1.226505089E1,3.223950148E0,-2.875050068E0
3.301414576E0,-1.190295029E1,2.937000036E0,-2.655000210E0
3.303948117E0,-8.506950378E0,3.222000122E0,-2.082000017E0
3.306481730E0,-1.220505047E1,3.955050230E0,-1.273050070E0
3.309015499E0,-1.241295052E1,3.009000063E0,-2.458050013E0
3.311549084E0,-2.830950022E0,4.762050152E0,-7.680000067E-1
3.314082851E0,-2.694000244E0,5.811000347E0,-1.579050064E0
3.316616391E0,-4.177050114E0,5.988000393E0,-2.092050076E0
3.319150005E0,-5.548950195E0,5.236050129E0,-1.399950027E0
3.321683735E0,-6.486000538E0,4.312050343E0,-1.053000093E0
3.324217352E0,-6.901950359E0,3.471000195E0,-9.379500151E-1
3.326750891E0,-7.503000259E0,2.961000204E0,-8.970000148E-1
3.329284735E0,-8.196000099E0,2.713950157E0,-1.147950053E0
3.331818257E0,-8.626950264E0,2.773950100E0,-1.429050088E0
3.334352024E0,-8.976000786E0,3.208050251E0,-1.747050047E0
3.336885641E0,-9.115050316E0,3.588000059E0,-1.945950150E0
3.339419180E0,-9.031949997E0,3.876000166E0,-1.984050035E0
3.341952942E0,-9.130050659E0,4.077000141E0,-1.953000069E0
3.344486559E0,-9.124950409E0,4.161000252E0,-1.953000069E0
3.347020326E0,-9.196950912E0,4.113000393E0,-1.833000064E0
3.349553867E0,-9.187050819E0,4.036050320E0,-1.825950146E0
3.352087490E0,-9.724050522E0,3.981000185E0,-1.978950143E0
3.354621260E0,-1.171395016E1,3.696000099E0,-2.346000195E0
3.357154800E0,-1.575195122E1,3.411000252E0,-2.916000128E0
3.359688644E0,-2.224200058E1,3.427950144E0,-3.490950108E0
3.362222181E0,-8.679000854E0,2.215950012E0,-7.699500322E-1
3.364755796E0,-6.730500460E-1,4.165950298E0,7.950000167E-1
3.367289563E0,-2.491050005E0,5.737050056E0,-2.005950212E0
3.369823104E0,-4.804050446E0,6.015000343E0,-2.173050165E0
3.372356745E0,-6.636000156E0,5.299050331E0,-1.402050018E0
3.374890514E0,-7.816950321E0,4.410000324E0,-1.219950080E0
3.377424132E0,-8.160000801E0,3.553050280E0,-7.720500231E-1
3.379957670E0,-8.614950180E0,3.064050198E0,-6.570000052E-1
3.382491433E0,-9.133950233E0,2.989950180E0,-1.123950005E0
3.385025051E0,-9.705000877E0,3.259950161E0,-1.467000127E0
3.387558818E0,-1.012395000E1,3.648000240E0,-1.672950029E0
3.390092359E0,-1.026300049E1,3.964050293E0,-1.783050060E0
3.392625957E0,-1.006905079E1,4.060050011E0,-1.915050149E0
3.395159726E0,-9.757050514E0,4.008000374E0,-1.989000082E0
3.397693344E0,-9.364050865E0,3.772950172E0,-2.070000172E0
3.400227111E0,-9.145950317E0,3.562050104E0,-1.917000055E0
3.402760632E0,-9.043050766E0,3.318000078E0,-1.776000142E0
3.405294246E0,-9.163050652E0,3.169050217E0,-1.738050103E0
3.407828015E0,-9.376049995E0,3.058950186E0,-1.843050122E0
3.410361555E0,-9.597000122E0,3.070950031E0,-1.711050034E0
3.412895400E0,-9.646950722E0,3.064050198E0,-1.666050076E0
3.415428940E0,-9.553950310E0,3.136050224E0,-1.500000119E0
3.417962555E0,-9.376049995E0,3.282000065E0,-1.407000065E0
3.420496094E0,-9.190050125E0,3.438000202E0,-1.270950079E0
3.423029856E0,-9.000000000E0,3.579000235E0,-1.273050070E0
3.425563474E0,-8.952000618E0,3.766050100E0,-1.218000054E0
3.428097241E0,-8.854050636E0,3.952950239E0,-1.102950096E0
3.430630858E0,-8.737050056E0,4.129950047E0,-9.349500537E-1
3.433164426E0,-8.533050537E0,4.282950401E0,-8.899500370E-1
3.435698193E0,-8.338950157E0,4.393050194E0,-8.920500278E-1
3.438231810E0,-8.293950081E0,4.467000008E0,-8.950500488E-1
3.440765349E0,-8.392050743E0,4.410000324E0,-8.539500237E-1
3.443299217E0,-8.521050453E0,4.288050175E0,-8.040000200E-1
3.445832757E0,-8.608050346E0,4.084050179E0,-7.699500322E-1
3.448366525E0,-8.644050598E0,3.876000166E0,-8.470500112E-1
3.450900065E0,-8.914050102E0,3.658050060E0,-8.730000257E-1
3.453433687E0,-8.779950142E0,3.462000132E0,-1.004999995E0
3.455967457E0,-8.476050377E0,3.366000175E0,-1.294050097E0
3.458501074E0,-8.313000679E0,3.325050116E0,-1.429050088E0
3.461034841E0,-8.136000633E0,3.259950161E0,-1.483950019E0
3.463568440E0,-8.227050781E0,3.148050070E0,-1.411950111E0
3.466101978E0,-8.394000053E0,2.905950069E0,-1.249050021E0
3.468635745E0,-8.590950012E0,2.737950087E0,-1.302000046E0
3.471169286E0,-8.814000130E0,2.652000189E0,-1.555950046E0
3.473703154E0,-8.794050217E0,2.583000183E0,-1.558050036E0
3.476236694E0,-8.923950195E0,2.653950214E0,-1.201050043E0
3.478770310E0,-8.887950897E0,2.680950165E0,-1.246950030E0
3.481304077E0,-9.190050125E0,2.776950121E0,-1.303950071E0
3.483837613E0,-9.496050835E0,2.863050222E0,-1.282950044E0
3.486371226E0,-9.511050224E0,2.986950159E0,-1.396950126E0
3.488904995E0,-9.309000015E0,3.082950115E0,-1.414050102E0
3.491438613E0,-9.666000366E0,3.105000257E0,-1.455000043E0
3.493972366E0,-1.045395088E1,3.133050203E0,-1.576950073E0
3.496505906E0,-1.043295002E1,3.295950174E0,-1.399950027E0
3.499039520E0,-1.071300030E1,3.283950090E0,-9.859500527E-1
3.501573289E0,-1.104105091E1,3.759000063E0,-1.041000009E0
3.504106819E0,-1.737104988E1,4.390950203E0,-2.146950006E0
3.506640433E0,-1.133805084E1,2.901000023E0,-1.261050105E0
3.509174202E0,-5.274000168E0,2.884050131E0,-1.090500057E-1
3.511707819E0,-5.530050278E0,3.628950119E0,-1.323000073E0
3.514241343E0,-7.503000259E0,3.957000256E0,-1.407000065E0
3.516775187E0,-8.480999947E0,3.775050163E0,-1.158000112E0
3.519308728E0,-9.337950706E0,3.382050276E0,-9.900000691E-1
3.521842495E0,-1.012395000E1,3.153000116E0,-1.111950040E0
3.524376035E0,-1.093605042E1,2.929950237E0,-1.254000068E0
3.526909649E0,-1.360395050E1,3.244050264E0,-2.437050104E0
3.529443418E0,-1.738305092E1,3.708000183E0,-3.433050156E0
3.531977035E0,-1.650600052E1,3.742050171E0,-3.214950085E0
3.534510768E0,-9.973050117E0,2.805000067E0,-9.739500284E-1
3.537044309E0,-4.063950062E0,2.692950010E0,2.710500062E-1
3.539577922E0,-4.170000076E0,3.861000299E0,-1.234950066E0
3.542111692E0,-6.961950302E0,4.429050446E0,-2.188050032E0
3.544645223E0,-9.052950859E0,4.264050007E0,-2.142000198E0
3.547179067E0,-1.013295078E1,3.651000261E0,-1.516950130E0
3.549712608E0,-1.078905010E1,3.118950129E0,-8.779500127E-1
3.552246223E0,-1.103595066E1,2.938950062E0,-7.050000429E-1
3.554779757E0,-1.088805008E1,3.142950058E0,-8.710500598E-1
3.557313524E0,-1.058805084E1,3.490050077E0,-1.012050033E0
3.559847141E0,-1.018800068E1,3.856950283E0,-1.066950083E0
3.562380908E0,-9.775950432E0,4.052999973E0,-1.024049997E0
3.564914545E0,-9.451050758E0,3.976050138E0,-9.640500546E-1
3.567448083E0,-9.180000305E0,3.699000120E0,-9.619500637E-1
3.569981850E0,-8.919000626E0,3.327000141E0,-1.000050068E0
3.572515468E0,-8.671950340E0,2.893950224E0,-9.660000205E-1
3.575048997E0,-8.446949959E0,2.632950068E0,-9.499500394E-1
3.577582841E0,-8.308050156E0,2.544000149E0,-9.499500394E-1
3.580116382E0,-8.137949944E0,2.650050163E0,-1.012050033E0
3.582650149E0,-8.008950233E0,2.784000158E0,-9.880500436E-1
3.585183690E0,-8.011050224E0,2.865000248E0,-9.780000448E-1
3.587717534E0,-7.906050205E0,2.827050209E0,-9.379500151E-1
3.590251074E0,-7.591950417E0,2.820000172E0,-9.570000172E-1
3.592784690E0,-7.213950157E0,2.733000040E0,-9.139500260E-1
3.595318461E0,-7.429050446E0,2.793000221E0,-8.920500278E-1
3.597852001E0,-7.468050480E0,3.088050127E0,-1.098000050E0
3.600385615E0,-7.840950489E0,3.415950060E0,-1.339950085E0
3.602919384E0,-9.853050232E0,3.814050198E0,-1.888050079E0
3.605453006E0,-1.652805138E1,5.361000061E0,-3.642000198E0
3.607986545E0,-2.148600197E1,6.486000538E0,-6.979950428E0
3.610520312E0,-2.031000137E0,1.464000106E0,3.253050089E0
3.613053930E0,-1.228950024E0,1.765950084E0,2.692050219E0
3.615587702E0,-1.098795033E1,4.911000252E0,-5.068950176E0
3.618121319E0,-7.297950268E0,4.003050327E0,-2.050500065E-1
3.620654858E0,-4.564949989E0,2.647050142E0,1.353000045E0
3.623188625E0,-6.117000103E0,3.184050083E0,-7.939500213E-1
3.625722271E0,-1.148595047E1,5.143050194E0,-4.087049961E0
3.628255810E0,-8.392050743E0,4.036050320E0,-2.260500044E-1
3.630789654E0,-4.198050022E0,2.788950205E0,1.902000070E0
3.633323194E0,-3.930000305E0,3.042000055E0,1.126049995E0
3.635856962E0,-1.054995060E1,4.246950150E0,-2.296050072E0
3.638390502E0,-1.261905098E1,4.237950325E0,-2.425050020E0
3.640924115E0,-3.922950268E0,2.701950073E0,7.590000629E-1
3.643457885E0,-6.010950089E0,2.623050213E0,3.240000010E-1
3.645991487E0,-1.833600044E1,4.663950443E0,-4.834050179E0
3.648525254E0,-1.432005024E1,3.993000269E0,-2.085000038E0
3.651058872E0,-1.737104988E1,5.251050472E0,-3.757050276E0
3.653592410E0,-1.678695107E1,4.606050014E0,-3.439950228E0
3.656126192E0,-8.482950211E0,1.692000031E0,-1.362000108E0
3.658659733E0,-6.313050270E0,2.266050100E0,-8.950500488E-1
3.661193577E0,-4.804050446E0,2.317050219E0,-2.073000193E0
3.663727117E0,1.831050038E0,1.632000089E0,1.695000008E-2
3.666260742E0,2.695950031E0,2.640000105E0,2.104950190E0
3.668794509E0,-1.131195068E1,5.296050072E0,-3.211050034E0
3.671328126E0,-5.904000282E0,2.686050177E0,-2.479500175E-1
3.673861665E0,-2.188950062E0,2.163000107E0,2.914950132E0
3.676395453E0,-2.184195137E1,6.063000202E0,-4.498950005E0
3.678929071E0,-1.711200142E1,3.852000237E0,-2.560950041E0
3.681462838E0,-1.137600040E1,3.054000139E0,-1.267950058E0
3.683996378E0,-3.358050108E0,2.431950092E0,6.040500402E-1
3.686529958E0,-5.266950130E0,3.294000149E0,-2.338950157E0
3.689063498E0,-1.681050062E0,3.331950188E0,1.180500090E-1
3.691597342E0,-1.532805061E1,5.737050056E0,-4.159049988E0
3.694130873E0,-9.396000862E0,3.427950144E0,-1.134000063E0
3.696664575E0,-1.164900017E1,3.636000156E0,-1.498050094E0
3.699198256E0,-4.440000057E0,1.978950143E0,-1.639500111E-1
3.701732025E0,-1.019505024E1,4.333050251E0,-1.338000059E0
3.704265565E0,-8.097000122E0,3.568950176E0,-1.648950100E0
3.706799179E0,-5.122950077E0,4.008000374E0,2.520000041E-1
3.709332948E0,-9.685050011E0,4.408050060E0,-8.110500574E-1
3.711866594E0,-4.897950172E0,3.433050156E0,3.190500140E-1
3.714400133E0,-7.108050346E0,4.270950317E0,2.010000050E-1
3.716933900E0,-7.434000492E0,3.622050285E0,-1.354050040E0
3.719467517E0,-1.303395081E1,4.558050156E0,-1.744950056E0
3.722001255E0,-1.252800083E1,4.218000412E0,-2.995050192E0
3.724534796E0,-3.834000111E0,2.731050014E0,3.120000064E-1
3.727068409E0,-8.797050476E0,3.964050293E0,-1.380000114E-1
3.729602179E0,-1.018800068E1,4.459950447E0,-2.587950230E0
3.732135791E0,-4.761000156E0,3.652950287E0,-1.050000072E0
3.734669558E0,-4.897950172E0,3.667050123E0,1.485000014E0
3.737203099E0,-1.215495014E1,4.204050064E0,-1.441050053E0
3.739736712E0,-9.730950356E0,3.909000158E0,-2.037000179E0
3.742270229E0,-1.038000011E1,3.583950281E0,-1.374000072E0
3.744804073E0,-6.445050240E0,2.701950073E0,9.105000645E-2
3.747337613E0,-3.997050285E0,2.638050079E0,2.163000107E0
3.749871380E0,-6.220050335E0,3.042000055E0,7.039500475E-1
3.752404989E0,-1.077705097E1,3.667050123E0,-2.023050070E0
3.754938527E0,-1.488000107E1,3.787050247E0,-3.397050142E0
3.757472294E0,-1.187205029E1,3.471000195E0,-2.287950039E0
3.760005912E0,-1.163205051E1,3.451950073E0,-2.047049999E0
3.762539659E0,-6.397050381E0,2.761950016E0,-1.039500013E-1
3.765073276E0,-4.246050358E0,3.045000076E0,1.834950089E0
3.767607044E0,-5.001000404E0,3.576000214E0,1.351050019E0
3.770140584E0,-7.171050549E0,4.078950405E0,-1.050000079E-3
3.772674118E0,-9.325950623E0,4.156050205E0,-7.530000210E-1
3.775207962E0,-1.037505054E1,3.997950077E0,-7.819500566E-1
3.777741502E0,-1.026300049E1,3.778050184E0,-5.950500369E-1
3.780275118E0,-9.613050461E0,3.490050077E0,-5.040000081E-1
3.782808890E0,-8.995950699E0,3.390000105E0,-6.289500594E-1
3.785342507E0,-8.622000694E0,3.397050142E0,-8.149500489E-1
3.787876046E0,-8.529000282E0,3.399000168E0,-9.060000181E-1
3.790409813E0,-8.655000687E0,3.459000111E0,-9.420000315E-1
3.792943411E0,-8.857050896E0,3.487950087E0,-1.041000009E0
3.795477179E0,-8.911950111E0,3.466050148E0,-1.150950074E0
3.798010796E0,-8.842050552E0,3.418050051E0,-1.146000028E0
3.800544334E0,-8.754000664E0,3.382050276E0,-1.050000072E0
3.803078102E0,-8.761050224E0,3.414000273E0,-9.180000424E-1
3.805611719E0,-8.847000122E0,3.481050253E0,-9.229500294E-1
3.808145258E0,-8.926050186E0,3.471000195E0,-9.690000415E-1
3.810679025E0,-9.031949997E0,3.450000048E0,-1.021050096E0
3.813212685E0,-9.127050400E0,3.423000097E0,-1.053000093E0
3.815746452E0,-9.108000755E0,3.367950201E0,-9.739500284E-1
3.818279993E0,-9.004950523E0,3.322950125E0,-8.869500160E-1
3.820813837E0,-9.100950241E0,3.397050142E0,-1.006950021E0
3.823347373E0,-9.376049995E0,3.583950281E0,-1.099950075E0
3.825880988E0,-9.714000702E0,3.732000113E0,-1.018950105E0
3.828414755E0,-9.949050903E0,3.888000250E0,-9.450000525E-1
3.830948296E0,-1.003695011E1,3.949950218E0,-9.420000315E-1
3.833481914E0,-9.934050560E0,3.973950148E0,-8.899500370E-1
3.836015683E0,-9.754950523E0,3.972000122E0,-8.179500103E-1
3.838549224E0,-9.573000908E0,3.948000193E0,-7.630500197E-1
3.841082837E0,-9.550950050E0,3.960000277E0,-7.390500307E-1
3.843616596E0,-9.670950890E0,3.949950218E0,-7.939500213E-1
3.846150214E0,-9.751950264E0,3.940950155E0,-8.440500498E-1
3.848683752E0,-9.811950684E0,3.940950155E0,-8.250000477E-1
3.851217519E0,-9.790950775E0,3.901950121E0,-7.579500079E-1
3.853751156E0,-9.714000702E0,3.847050190E0,-7.030500174E-1
3.856284923E0,-9.562950134E0,3.804000139E0,-8.179500103E-1
3.858818540E0,-9.430950165E0,3.736950159E0,-1.050000072E0
3.861352079E0,-9.295050621E0,3.612000227E0,-1.267950058E0
3.863885860E0,-9.151050568E0,3.409050226E0,-1.588950038E0
3.866419478E0,-9.112950325E0,3.220050097E0,-1.845000029E0
3.868953245E0,-9.208950043E0,3.181050062E0,-1.857000113E0
3.871486785E0,-9.433950424E0,3.202950239E0,-1.717950106E0
3.874020381E0,-9.862950325E0,3.046950102E0,-1.414050102E0
3.876554150E0,-1.008495045E1,2.902950048E0,-9.709500670E-1
3.879087767E0,-9.715950012E0,2.892000198E0,-6.529500484E-1
3.881621535E0,-9.036000252E0,2.965950251E0,-8.730000257E-1
3.884155112E0,-8.950050354E0,2.962950230E0,-1.467000127E0
3.886688725E0,-9.151050568E0,2.817000151E0,-1.819050074E0
3.889222495E0,-9.336000443E0,2.500950098E0,-1.539000034E0
3.891756035E0,-9.501000404E0,2.413050175E0,-1.326000094E0
3.894289643E0,-9.379050255E0,2.494050026E0,-1.134000063E0
3.896823413E0,-9.193950653E0,2.626050234E0,-1.338000059E0
3.899357030E0,-9.582000732E0,2.992050171E0,-1.429050088E0
3.901890569E0,-1.079895020E1,3.442050219E0,-1.857000113E0
3.904424466E0,-9.879000664E0,3.355950117E0,-1.395000100E0
3.906958006E0,-9.067049980E0,3.265050173E0,-9.379500151E-1
3.909491773E0,-9.027000427E0,3.451950073E0,-1.171950102E0
3.912025391E0,-9.397950172E0,3.580950260E0,-1.203000069E0
3.914558929E0,-9.249000549E0,3.507000208E0,-1.129050016E0
3.917092697E0,-8.674950600E0,3.346950054E0,-8.350500464E-1
3.919626314E0,-8.962050438E0,3.342000246E0,-9.469500184E-1
3.922160081E0,-9.517950058E0,3.399000168E0,-1.089000106E0
3.924693627E0,-1.040100002E1,3.469050169E0,-1.246950030E0
3.927227240E0,-1.122105026E1,3.484950066E0,-1.539000034E0
3.929761009E0,-1.105500031E1,3.421050072E0,-1.158000112E0
3.932294627E0,-1.085895061E1,3.487950087E0,-1.153050065E0
3.934828389E0,-1.003305054E1,3.484950066E0,-9.139500260E-1
3.937361929E0,-9.850950241E0,3.667050123E0,-7.240500450E-1
3.939895543E0,-1.018395042E1,3.852000237E0,-9.690000415E-1
3.942429312E0,-1.043295002E1,3.838050127E0,-1.050000072E0
3.944962915E0,-1.045200062E1,3.703050137E0,-1.077000022E0
3.947496454E0,-1.041795063E1,3.526050091E0,-1.134000063E0
3.950030221E0,-1.042305088E1,3.490050077E0,-1.249050021E0
3.952563838E0,-1.047600079E1,3.505050182E0,-1.282950044E0
3.955097611E0,-1.059105015E1,3.595950127E0,-1.192050099E0
3.957631228E0,-1.065795040E1,3.691050291E0,-1.089000106E0
3.960164767E0,-1.066995049E1,3.823050261E0,-9.810000658E-1
3.962698534E0,-1.069095039E1,3.912000179E0,-8.830500245E-1
3.965232136E0,-1.079400063E1,3.820950270E0,-9.019500613E-1
3.967765675E0,-1.085205078E1,3.720000267E0,-9.499500394E-1
3.970299442E0,-1.082100010E1,3.628950119E0,-9.880500436E-1
3.972833059E0,-1.062195015E1,3.616950274E0,-9.930000305E-1
3.975366817E0,-1.063905048E1,3.598050117E0,-1.042950034E0
3.977900357E0,-1.060500050E1,3.652950287E0,-1.036050081E0
3.980433970E0,-1.042800045E1,3.769950151E0,-1.098000050E0
3.982967740E0,-1.026705074E1,3.876000166E0,-1.186950088E0
3.985501362E0,-1.006905079E1,4.045950413E0,-1.141050100E0
3.988035129E0,-9.810000420E0,4.342950344E0,-9.640500546E-1
3.990568670E0,-9.745050430E0,4.578000069E0,-9.040500522E-1
3.993102283E0,-9.882000923E0,4.575000286E0,-5.419500470E-1
3.995636038E0,-1.015005016E1,4.519950390E0,-4.009500146E-1
3.998169656E0,-1.052400017E1,4.453050137E0,-6.139500141E-1
4.000703194E0,-1.072500038E1,4.393050194E0,-7.480500340E-1
4.003236961E0,-1.078200054E1,4.378950119E0,-5.419500470E-1
4.005770559E0,-1.068900013E1,4.422000408E0,-3.990000188E-1
4.008304326E0,-9.889050484E0,4.663950443E0,-4.609500170E-1
4.010837867E0,-1.075605011E1,4.717050076E0,-5.020500422E-1
4.013371480E0,-1.099800014E1,4.587000370E0,-7.270500064E-1
4.015905249E0,-1.069800091E1,4.549050331E0,-9.660000205E-1
4.018438867E0,-1.048005009E1,4.281000137E0,-1.180050015E0
4.020972405E0,-1.040595055E1,4.005000114E0,-1.414050102E0
4.023506172E0,-1.033200073E1,3.861000299E0,-1.483950019E0
4.026039805E0,-1.014300060E1,3.706050158E0,-1.455000043E0
4.028573572E0,-9.955950737E0,3.499950171E0,-1.402050018E0
4.031107112E0,-9.736050606E0,3.438000202E0,-1.540950060E0
4.033640957E0,-9.570000648E0,3.307950258E0,-1.539000034E0
4.036174497E0,-9.597000122E0,3.271950245E0,-1.587000132E0
4.038708112E0,-9.714000702E0,3.406050205E0,-1.627050042E0
4.041241651E0,-9.757050514E0,3.517050266E0,-1.624950051E0
4.043775418E0,-9.858000755E0,3.462000132E0,-1.366050124E0
4.046309035E0,-1.015500069E1,3.430050135E0,-1.290000081E0
4.048842803E0,-1.045905018E1,3.571950197E0,-1.273050070E0
4.051376420E0,-1.078200054E1,3.781950235E0,-8.200500607E-1
4.053909959E0,-1.116300011E1,3.873000145E0,-4.249500334E-1
4.056443750E0,-1.108605099E1,4.192049980E0,-3.600000143E-1
4.058977367E0,-1.091595078E1,3.864000082E0,-2.689500153E-1
4.061511134E0,-1.058100033E1,3.973950148E0,-3.150000274E-1
4.064044675E0,-1.038900089E1,4.170000076E0,-5.740500093E-1
4.066578283E0,-1.060305023E1,4.147050381E0,-7.990500331E-1
4.069112053E0,-1.048800087E1,4.441050053E0,-1.009050012E0
4.071645670E0,-1.048305035E1,4.266000271E0,-1.030950069E0
4.074179437E0,-1.022895050E1,4.627950191E0,-9.589500427E-1
4.076712992E0,-9.966000557E0,4.780950069E0,-6.190500259E-1
4.079246605E0,-9.187050819E0,5.406000137E0,-2.359500080E-1
4.081780374E0,-8.803950310E0,4.515000343E0,-1.243950009E0
4.084313915E0,-9.534000397E0,3.366000175E0,-1.867050052E0
4.086847528E0,-9.550950050E0,3.586050272E0,-1.471950054E0
4.089381297E0,-9.208950043E0,3.579000235E0,-1.750050068E0
4.091914915E0,-8.944950104E0,3.307950258E0,-1.905000091E0
4.094448453E0,-8.397000313E0,3.703050137E0,-1.587000132E0
4.096982225E0,-8.344050407E0,3.402000189E0,-1.426050067E0
4.099515843E0,-8.679000854E0,3.600000143E0,-1.431000113E0
4.102049610E0,-8.112000465E0,4.242000103E0,-9.949500561E-1
4.104583227E0,-8.239050865E0,3.961950302E0,-1.771050096E0
4.107116766E0,-8.160000801E0,3.772950172E0,-1.467000127E0
4.109650533E0,-8.095050812E0,3.610050201E0,-1.659000039E0
4.112184151E0,-7.651950359E0,3.955050230E0,-1.672950029E0
4.114717689E0,-7.944000244E0,3.615000248E0,-1.879050136E0
4.117251466E0,-8.191050529E0,3.531000137E0,-1.639050126E0
4.119785084E0,-7.996950150E0,3.957000256E0,-1.417050123E0
4.122318851E0,-8.848950386E0,4.609050274E0,-1.692000031E0
4.124852468E0,-8.821050644E0,4.410000324E0,-1.330050111E0
4.127386240E0,-8.068950653E0,4.587000370E0,-1.168050051E0
4.129919781E0,-7.756950378E0,4.912950039E0,-1.171950102E0
4.132453394E0,-8.860950470E0,4.932000160E0,-1.491000056E0
4.134987164E0,-9.526950836E0,5.422950268E0,-1.194000006E0
4.137520771E0,-8.272050858E0,5.538000107E0,-1.600950122E0
4.140054309E0,-8.791950226E0,5.404050350E0,-1.723050117E0
4.142588077E0,-9.738000870E0,5.157000065E0,-1.399950027E0
4.145121694E0,-9.337950706E0,5.025000095E0,-1.357050061E0
4.147655466E0,-9.511050224E0,4.933950424E0,-1.338000059E0
4.150189007E0,-9.273000717E0,5.239050388E0,-1.351950049E0
4.152722620E0,-8.584050179E0,4.639950275E0,-1.551000118E0
4.155256389E0,-9.216000557E0,4.453050137E0,-1.816950083E0
4.157789983E0,-1.031295013E1,4.951050282E0,-1.957950115E0
4.160323521E0,-9.853050232E0,4.944000244E0,-2.358000040E0
4.162857289E0,-9.328050613E0,4.446000099E0,-2.644950151E0
4.165390906E0,-9.264000893E0,5.149950027E0,-2.583000183E0
4.167924478E0,-8.335050583E0,4.960950375E0,-2.439000130E0
4.170458246E0,-7.714050293E0,4.585050106E0,-2.281050205E0
4.172991863E0,-8.004000664E0,4.819950104E0,-2.158950090E0
4.175525630E0,-7.875000477E0,4.800000191E0,-2.194950104E0
4.178059258E0,-7.173000336E0,4.515000343E0,-2.296050072E0
4.180593025E0,-7.426950455E0,4.534049988E0,-2.535000086E0
4.183126565E0,-8.023050308E0,4.633050442E0,-2.149950027E0
4.185660179E0,-8.305950165E0,4.597050190E0,-2.482050180E0
4.188193933E0,-8.466000557E0,4.783950329E0,-2.202000141E0
4.190727473E0,-9.076950073E0,5.113950253E0,-2.278950214E0
4.193261087E0,-9.877050400E0,5.401050091E0,-2.056050062E0
4.195794856E0,-9.439050674E0,5.899950504E0,-2.085000038E0
4.198328493E0,-9.028950691E0,6.229950428E0,-2.407950163E0
4.200862032E0,-9.634950638E0,6.702000141E0,-2.446050167E0
4.203395799E0,-1.016895008E1,7.246050358E0,-2.431950092E0
4.205929417E0,-9.517950058E0,7.500000477E0,-2.599950075E0
4.208463184E0,-8.959950447E0,7.507050514E0,-2.631000042E0
4.210996801E0,-8.476050377E0,7.861050606E0,-2.739000082E0
4.213530340E0,-8.128950119E0,7.384950161E0,-2.668950081E0
4.216064107E0,-7.779000282E0,6.645000458E0,-2.631000042E0
4.218597724E0,-7.558950424E0,6.127050400E0,-2.782050133E0
4.221131491E0,-7.453050137E0,5.670000076E0,-2.716950178E0
4.223665032E0,-7.342950344E0,5.566950321E0,-2.869950056E0
4.226198645E0,-6.763050556E0,5.481000423E0,-2.748000145E0
4.228732420E0,-6.193050385E0,5.413050175E0,-2.509050131E0
4.231266037E0,-5.571000099E0,5.143050194E0,-2.752950191E0
4.233799804E0,-5.131950378E0,5.089950085E0,-2.599950075E0
4.236333345E0,-4.320000172E0,5.137950420E0,-2.635950089E0
4.238866962E0,-3.621000290E0,5.041950226E0,-2.791050196E0
4.241400731E0,-2.872050047E0,5.157000065E0,-2.787000179E0
4.243934272E0,-1.909050107E0,5.188050270E0,-2.680950165E0
4.246467885E0,-1.711950064E0,5.212050438E0,-2.583000183E0
4.249001654E0,-1.662000060E0,5.442000389E0,-2.557050228E0
4.251535277E0,-1.518000126E0,5.265000343E0,-2.695950031E0
4.254069044E0,-1.633050084E0,5.521050453E0,-2.887050152E0
4.256602661E0,-1.530000091E0,5.896950245E0,-3.057000160E0
4.259136200E0,-9.700500369E-1,6.022050381E0,-3.214950085E0
4.261669967E0,-6.130500436E-1,6.232950211E0,-3.181950092E0
4.264203585E0,-2.779500186E-1,6.442950249E0,-2.892000198E0
4.266737123E0,-1.950000064E-3,6.517950535E0,-2.961000204E0
4.269270890E0,-3.600000218E-2,6.799950123E0,-3.105000257E0
4.271804518E0,7.605000585E-2,7.009050369E0,-3.187050104E0
4.274338285E0,-3.600000218E-2,7.012950420E0,-3.579000235E0
4.276871825E0,-4.999500215E-1,6.946050167E0,-4.060950279E0
4.279405439E0,-9.550500512E-1,6.819000244E0,-4.309950352E0
4.281939198E0,-1.402950048E0,6.661050320E0,-4.243050098E0
4.284472815E0,-1.758000135E0,6.466950417E0,-4.069950104E0
4.287006583E0,-1.873050094E0,6.292050362E0,-3.907050133E0
4.289540123E0,-1.851000071E0,6.064950466E0,-3.891000271E0
4.292073731E0,-1.678950071E0,5.863950253E0,-3.976950169E0
4.294607501E0,-1.453950047E0,5.607000351E0,-3.736950159E0
4.297141118E0,-1.180950046E0,5.385000229E0,-3.895050287E0
4.299674657E0,-1.075049996E0,5.434950352E0,-3.832950115E0
4.302208448E0,-9.079500437E-1,5.458950043E0,-3.826050282E0
4.304742065E0,-9.700500369E-1,5.494950294E0,-3.745050192E0
4.307275832E0,-1.105949998E0,5.584050179E0,-3.591000080E0
4.309809450E0,-1.183050036E0,5.686050415E0,-3.579000235E0
4.312342983E0,-1.281000018E0,5.806050301E0,-3.603000164E0
4.314876750E0,-1.638000131E0,5.824950218E0,-3.700950146E0
4.317410368E0,-1.875000119E0,5.806050301E0,-3.976950169E0
4.319943906E0,-1.971000075E0,6.036000252E0,-4.084949970E0
4.322477689E0,-2.128950119E0,6.115050316E0,-4.328999996E0
4.325011306E0,-2.461950064E0,6.357000351E0,-4.231050014E0
4.327545073E0,-2.622000217E0,6.489000320E0,-4.390950203E0
4.330078691E0,-2.754000187E0,6.606000423E0,-4.057950020E0
4.332612189E0,-3.168000221E0,6.759000301E0,-4.069950104E0
4.335145956E0,-3.568050146E0,6.847950459E0,-4.437000275E0
4.337679574E0,-3.633000135E0,7.011000156E0,-4.513050079E0
4.340213341E0,-3.817950249E0,6.988950253E0,-4.719000340E0
4.342746886E0,-3.940050125E0,7.111950397E0,-4.398000240E0
4.345280500E0,-4.324950218E0,7.059000492E0,-4.528050423E0
4.347814269E0,-4.564949989E0,7.092000484E0,-4.327050209E0
4.350347886E0,-4.948050022E0,7.044000149E0,-4.192049980E0
4.352881430E0,-5.182950020E0,6.846000195E0,-4.018050194E0
4.355415197E0,-5.500950336E0,6.517950535E0,-4.564050198E0
4.357948815E0,-5.875050068E0,6.388050079E0,-4.879950047E0
4.360482582E0,-6.565050125E0,6.522000313E0,-5.251050472E0
4.363016098E0,-7.039050102E0,6.927000523E0,-5.014050007E0
4.365549712E0,-7.918050289E0,7.396950245E0,-5.241000175E0
4.368083481E0,-8.557050705E0,7.600050449E0,-5.173950195E0
4.370617098E0,-8.943000793E0,7.555050373E0,-5.308950424E0
4.373150850E0,-9.142050743E0,7.042050362E0,-5.710950375E0
4.375684391E0,-9.058050156E0,6.702000141E0,-6.451050282E0
4.378218004E0,-8.974050522E0,6.769050121E0,-6.853050232E0
4.380751774E0,-9.084000587E0,7.104000568E0,-6.529950142E0
4.383285362E0,-9.094050407E0,6.964950562E0,-5.977050304E0
4.385818900E0,-8.689050674E0,6.340050220E0,-5.470950127E0
4.388352668E0,-8.064000130E0,5.911950111E0,-5.494950294E0
4.390886285E0,-7.573050499E0,5.887950420E0,-5.661000252E0
4.393420047E0,-7.075050354E0,6.085950375E0,-5.622000217E0
4.395953588E0,-6.615000248E0,6.271050453E0,-5.470950127E0
4.398487201E0,-6.415950298E0,6.469950199E0,-5.512050152E0
4.401020970E0,-6.435000420E0,6.700050354E0,-5.491050243E0
4.403554569E0,-6.355950356E0,6.963000298E0,-5.541000366E0
4.406088107E0,-6.319950104E0,7.036950111E0,-5.778000355E0
4.408621874E0,-6.571950436E0,6.783000469E0,-5.878950119E0
4.411155492E0,-6.699000359E0,6.520050526E0,-5.899950504E0
4.413689226E0,-6.589050293E0,6.349950314E0,-5.332050323E0
4.416222767E0,-6.382950306E0,6.453000069E0,-4.746000290E0
4.418756380E0,-6.387000084E0,6.388050079E0,-4.393949986E0
4.421290149E0,-6.877950191E0,6.172950268E0,-4.903950214E0
4.423823742E0,-6.310950279E0,6.349950314E0,-5.148000240E0
4.426357509E0,-5.298000336E0,6.640050411E0,-4.909050465E0
4.428891049E0,-4.427999973E0,6.838950157E0,-5.445000172E0
4.431424663E0,-3.604050159E0,6.970050335E0,-5.377950191E0
4.433958418E0,-3.180000067E0,6.991950512E0,-5.467050076E0
4.436491958E0,-3.427050114E0,6.846000195E0,-5.878950119E0
4.439025572E0,-3.504000187E0,6.391050339E0,-6.766950130E0
4.441559341E0,-3.709950209E0,6.156000137E0,-6.643050194E0
4.444092963E0,-4.522050381E0,6.213000298E0,-5.730000496E0
4.446626502E0,-5.293050289E0,6.121950150E0,-5.095050335E0
4.449160346E0,-5.716950417E0,5.824950218E0,-5.365950108E0
4.451693887E0,-6.130950451E0,5.833050251E0,-5.955000401E0
4.454227663E0,-6.331950188E0,6.027000427E0,-5.911950111E0
4.456761280E0,-6.283950329E0,6.112950325E0,-6.103950500E0
4.459294819E0,-6.265050411E0,6.237000465E0,-6.055950165E0
4.461828586E0,-6.081000328E0,6.337950230E0,-5.923950195E0
4.464362203E0,-5.962950230E0,6.385950089E0,-5.967000484E0
4.466895970E0,-5.920050144E0,6.412050247E0,-5.935950279E0
4.469429511E0,-5.841000080E0,6.403050423E0,-5.862000465E0
4.471963124E0,-5.781000137E0,6.357000351E0,-5.803950310E0
4.474496909E0,-5.809950352E0,6.348000526E0,-5.770950317E0
4.477030526E0,-5.868000507E0,6.355050087E0,-5.710950375E0
4.479564293E0,-5.965950489E0,6.321000099E0,-5.749050140E0
4.482097834E0,-6.019050121E0,6.376050472E0,-5.673000336E0
4.484631442E0,-6.061950207E0,6.451050282E0,-5.719950199E0
4.487165211E0,-6.166950226E0,6.574950218E0,-5.782950401E0
4.489698829E0,-6.184050083E0,6.633000374E0,-5.776050091E0
4.492232367E0,-6.169050217E0,6.658950329E0,-5.754000187E0
4.494766173E0,-6.025950432E0,6.679950237E0,-5.758950233E0
4.497299791E0,-5.935050488E0,6.297000408E0,-4.987950325E0
4.499833558E0,-5.880000114E0,6.751950264E0,-6.240000248E0
4.502367175E0,-5.680950165E0,6.931950092E0,-5.893050194E0
4.504900705E0,-5.511000156E0,6.838950157E0,-5.268000126E0
4.507434472E0,-5.245050430E0,6.714000225E0,-5.320950031E0
4.509968089E0,-4.867050171E0,6.640050411E0,-5.170050144E0
4.512501628E0,-4.962000370E0,6.546000481E0,-5.424000263E0
4.515035400E0,-4.831050396E0,6.498000145E0,-5.412000179E0
4.517569018E0,-4.732050419E0,6.462000370E0,-5.316000462E0
4.520102785E0,-4.633950233E0,6.445950508E0,-5.275050163E0
4.522636325E0,-4.572000027E0,6.427050114E0,-5.224950314E0
4.525170202E0,-4.447050095E0,6.370950222E0,-5.233950138E0
4.527703743E0,-4.360949993E0,6.409950256E0,-5.232000351E0
4.530237358E0,-4.303950310E0,6.382950306E0,-5.194050312E0
4.532771126E0,-4.215000153E0,6.400050163E0,-5.208000183E0
4.535304676E0,-4.190999985E0,6.367050171E0,-5.185950279E0
4.537838289E0,-4.118999958E0,6.403050423E0,-5.158050060E0
4.540372059E0,-4.030950069E0,6.393000126E0,-5.127000332E0
4.542905676E0,-3.990000248E0,6.349950314E0,-5.100000381E0
4.545439214E0,-3.916050196E0,6.349950314E0,-5.019000053E0
4.547973059E0,-3.777000189E0,6.336000443E0,-4.959000111E0
4.550506599E0,-3.667050123E0,6.316050529E0,-5.002050400E0
4.553040366E0,-3.613950253E0,6.324000359E0,-4.960950375E0
4.555573969E0,-3.561000109E0,6.271050453E0,-4.915950298E0
4.558107507E0,-3.556050062E0,6.312000275E0,-4.794000149E0
4.560641274E0,-3.504000187E0,6.319050312E0,-4.747950077E0
4.563174892E0,-3.439050198E0,6.288000107E0,-4.734000206E0
4.565708683E0,-3.481950283E0,6.331050396E0,-4.818000317E0
4.568242224E0,-3.556050062E0,6.304050446E0,-4.825050354E0
4.570775837E0,-3.703050137E0,6.229950428E0,-4.897050381E0
4.573309606E0,-3.820050240E0,6.331050396E0,-5.047050476E0
4.575843186E0,-3.810000181E0,6.433950424E0,-5.038050175E0
4.578377030E0,-3.886950254E0,6.448050499E0,-5.040000439E0
4.580910570E0,-3.913050175E0,6.394950390E0,-5.068950176E0
4.583444186E0,-3.874950171E0,6.336000443E0,-5.050050259E0
4.585977972E0,-4.066950321E0,6.328050137E0,-5.209950447E0
4.588511512E0,-4.146000385E0,6.285000324E0,-5.251050472E0
4.591045126E0,-4.174050331E0,6.256950378E0,-5.215050220E0
4.593578895E0,-4.228950024E0,6.288000107E0,-5.164950371E0
4.596112517E0,-4.270050049E0,6.324000359E0,-5.095050335E0
4.598646056E0,-4.303950310E0,6.301950455E0,-5.119050026E0
4.601179823E0,-4.299000263E0,6.340050220E0,-5.149950027E0
4.603713440E0,-4.330049992E0,6.388050079E0,-5.170050144E0
4.606247203E0,-4.335000038E0,6.421950340E0,-5.148000240E0
4.608780743E0,-4.348950386E0,6.441000462E0,-5.110050201E0
4.611314357E0,-4.327950001E0,6.436050415E0,-5.124000072E0
4.613848126E0,-4.288949966E0,6.472050190E0,-5.127000332E0
4.616381733E0,-4.276950359E0,6.451050282E0,-5.068950176E0
4.618915500E0,-4.258049965E0,6.418950081E0,-5.056950092E0
4.621449041E0,-4.131000042E0,6.415050507E0,-5.035950184E0
4.623982654E0,-4.063950062E0,6.418950081E0,-4.984950066E0
4.626516434E0,-4.030950069E0,6.403050423E0,-4.996950150E0
4.629049974E0,-4.026000023E0,6.376050472E0,-5.052000046E0
4.631583818E0,-4.071000099E0,6.397950172E0,-5.095050335E0
4.634117359E0,-4.098000050E0,6.379050255E0,-5.149950027E0
4.636650964E0,-4.138050079E0,6.358950138E0,-5.155050278E0
4.639184502E0,-4.138050079E0,6.379050255E0,-5.160000324E0
4.641718347E0,-4.123950005E0,6.355050087E0,-5.176950455E0
4.644251887E0,-4.111950397E0,6.328050137E0,-5.232000351E0
4.646785673E0,-4.098000050E0,6.316050529E0,-5.227050304E0
4.649319291E0,-4.105050087E0,6.276000500E0,-5.245950222E0
4.651853058E0,-4.047000408E0,6.244950294E0,-5.253000259E0
4.654386598E0,-4.122000217E0,6.180000305E0,-5.682000160E0
4.656920183E0,-5.013000011E0,5.833050251E0,-7.435050488E0
4.659453952E0,-5.959050179E0,5.605050087E0,-6.882000446E0
4.661987569E0,-5.892000198E0,5.629050255E0,-5.512050152E0
4.664521337E0,-4.942950249E0,6.276000500E0,-4.654950142E0
4.667054867E0,-3.798000097E0,7.060950279E0,-4.386000156E0
4.669588481E0,-3.853050232E0,7.126050472E0,-4.783950329E0
4.672122250E0,-4.206000328E0,6.790950298E0,-5.146050453E0
4.674655790E0,-4.507050037E0,6.517950535E0,-5.457000256E0
4.677189404E0,-4.701000214E0,6.172950268E0,-5.605950356E0
4.679723173E0,-4.741950035E0,5.887950420E0,-5.959950447E0
4.682256790E0,-5.026950359E0,5.797050476E0,-7.390050411E0
4.684790329E0,-5.664000034E0,5.683950424E0,-6.706950188E0
4.687324173E0,-5.323950291E0,6.003000259E0,-5.461950302E0
4.689857713E0,-4.644000053E0,6.943950176E0,-5.086050034E0
4.692391481E0,-4.267950058E0,7.629000187E0,-4.948950291E0
4.694925098E0,-4.273050308E0,7.669950485E0,-5.337000370E0
4.697440536E0,-4.231950283E0,6.964950562E0,-5.269950390E0
4.699959087E0,-4.213050365E0,6.538950443E0,-5.586000443E0
4.702477638E0,-4.342050076E0,6.352050304E0,-5.814000130E0
4.705059788E0,-4.416000366E0,6.229950428E0,-5.947950363E0
4.707593329E0,-4.407000065E0,6.216000080E0,-6.067950249E0
4.710126944E0,-4.255949974E0,6.355050087E0,-6.067950249E0
4.712660703E0,-4.098000050E0,6.541950226E0,-5.919000149E0
4.715194242E0,-4.054950237E0,6.802950382E0,-5.938050270E0
4.717728088E0,-4.085999966E0,6.930000305E0,-6.001050472E0
4.720261627E0,-4.270050049E0,6.982050419E0,-5.977050304E0
4.722795228E0,-4.608000278E0,6.967950344E0,-6.064950466E0
4.725328995E0,-4.732050419E0,6.886050224E0,-6.118050098E0
4.727862613E0,-4.636950016E0,6.616050243E0,-5.959950447E0
4.730396151E0,-4.384950161E0,6.462000370E0,-5.898000240E0
4.732929875E0,-4.014000416E0,6.247050285E0,-5.839950085E0
4.735463493E0,-3.801000118E0,6.166050434E0,-5.818950176E0
4.737997031E0,-3.765000105E0,6.096000195E0,-5.943000317E0
4.740530875E0,-3.709950209E0,6.120000362E0,-5.970000267E0
4.743064406E0,-3.834000111E0,6.172950268E0,-6.049050331E0
4.745598173E0,-3.829950094E0,6.247050285E0,-5.875950336E0
4.748131790E0,-3.942000151E0,6.316050529E0,-5.823000431E0
4.750665558E0,-4.110000134E0,6.439050198E0,-5.893050194E0
4.753199117E0,-4.182000160E0,6.433950424E0,-5.814000130E0
4.755732730E0,-4.150050163E0,6.429000378E0,-5.673000336E0
4.758266500E0,-4.174050331E0,6.427050114E0,-5.881050110E0
4.760800040E0,-4.162050247E0,6.289950371E0,-5.806950092E0
4.763333644E0,-4.275000095E0,6.393000126E0,-5.823000431E0
4.765867413E0,-4.339950085E0,6.406950474E0,-5.668050289E0
4.768401030E0,-4.291950226E0,6.343050480E0,-5.617950439E0
4.770934797E0,-4.190999985E0,6.265950203E0,-5.313000202E0
4.773468353E0,-4.059000015E0,6.204000473E0,-5.731950283E0
4.776001966E0,-4.311000347E0,6.376050472E0,-5.658000469E0
4.778535736E0,-4.201050282E0,6.478950500E0,-5.371050358E0
4.781069353E0,-3.834000111E0,6.448050499E0,-5.719950199E0
4.783602900E0,-4.146000385E0,6.810000420E0,-6.372000217E0
4.786136668E0,-5.085000038E0,6.895950317E0,-7.002000332E0
4.788670285E0,-5.098950386E0,6.814950466E0,-6.513000488E0
4.791204052E0,-4.950000286E0,6.847950459E0,-5.883000374E0
4.793737661E0,-4.663050175E0,6.814950466E0,-5.440050125E0
4.796271428E0,-4.210050106E0,6.418950081E0,-5.128950119E0
4.798804968E0,-3.933000088E0,6.187050343E0,-5.281950474E0
4.801338582E0,-4.110000134E0,6.352050304E0,-5.694000244E0
4.803872370E0,-4.122000217E0,6.441000462E0,-5.797050476E0
4.806405910E0,-4.050000191E0,6.520050526E0,-5.935950279E0
4.808939524E0,-3.820050240E0,6.427050114E0,-5.802000046E0
4.811473293E0,-4.099950314E0,6.682950497E0,-5.881050110E0
4.814006915E0,-4.297049999E0,6.742950439E0,-5.506950378E0
4.816540683E0,-4.074000359E0,6.616050243E0,-5.052000046E0
4.819074223E0,-3.802950144E0,6.379050255E0,-5.397000313E0
4.821607837E0,-3.970950127E0,6.573000431E0,-5.833050251E0
4.824141625E0,-4.069050312E0,6.634950161E0,-5.983950138E0
4.826675165E0,-4.347000122E0,6.645000458E0,-6.127950191E0
4.829208779E0,-4.219950199E0,6.510000229E0,-5.886000156E0
4.831742548E0,-4.264950275E0,6.664050102E0,-5.898000240E0
4.834276147E0,-4.309050083E0,6.709050179E0,-5.791950226E0
4.836809914E0,-4.525950432E0,6.654000282E0,-5.725050449E0
4.839343455E0,-4.399950027E0,6.484050274E0,-5.893050194E0
4.841877068E0,-4.231950283E0,6.394950390E0,-5.907000065E0
4.844410809E0,-4.021049976E0,6.273000240E0,-5.934000492E0
4.846944349E0,-3.772050142E0,6.169950485E0,-5.728050232E0
4.849478193E0,-3.657000065E0,6.241950512E0,-5.541000366E0
4.852011734E0,-3.646950245E0,6.240000248E0,-5.617950439E0
4.854545334E0,-3.739050150E0,6.259050369E0,-5.710950375E0
4.857078873E0,-3.955950260E0,6.415050507E0,-5.713050365E0
4.859612717E0,-4.066950321E0,6.469950199E0,-5.845050335E0
4.862146257E0,-4.135950089E0,6.520050526E0,-5.959950447E0
4.864680015E0,-4.288949966E0,6.549000263E0,-5.905050278E0
4.867213633E0,-4.189050198E0,6.498000145E0,-5.946000099E0
4.869747400E0,-4.228950024E0,6.553050518E0,-5.946000099E0
4.872280941E0,-4.047000408E0,6.462000370E0,-5.782950401E0
4.874814558E0,-3.796050072E0,6.418950081E0,-5.560050488E0
4.877348327E0,-3.729000092E0,6.501000404E0,-5.577000141E0
4.879881945E0,-4.000050068E0,6.513000488E0,-5.761050224E0
4.882415712E0,-4.122000217E0,6.498000145E0,-5.835000515E0
4.884949262E0,-4.162050247E0,6.541950226E0,-5.869050503E0
4.887482876E0,-4.300950050E0,6.517950535E0,-5.902950287E0
4.890016645E0,-4.323000431E0,6.510000229E0,-5.851950169E0
4.892550185E0,-4.348950386E0,6.486000538E0,-5.881050110E0
4.895083823E0,-4.264950275E0,6.469950199E0,-5.785050392E0
4.897617592E0,-4.198050022E0,6.469950199E0,-5.766000271E0
4.900151209E0,-4.258049965E0,6.529950142E0,-5.752050400E0
4.902684748E0,-4.537950039E0,6.637050152E0,-5.883000374E0
4.905218602E0,-4.909950256E0,6.694950104E0,-6.264000416E0
4.907752142E0,-4.834950447E0,6.676050186E0,-6.027000427E0
4.910285910E0,-4.837950230E0,6.690000534E0,-5.979000092E0
4.912819527E0,-4.765950203E0,6.690000534E0,-5.821050167E0
4.915353274E0,-4.579050064E0,6.606000423E0,-5.802000046E0
4.917886815E0,-4.513950348E0,6.613050461E0,-5.847000122E0
4.920420428E0,-4.483050346E0,6.645000458E0,-5.911950111E0
4.922954197E0,-4.392000198E0,6.630000114E0,-5.854950428E0
4.925487748E0,-4.335000038E0,6.658950329E0,-5.814000130E0
4.928021592E0,-4.279950142E0,6.613050461E0,-5.857050419E0
4.930555132E0,-4.218000412E0,6.730950356E0,-5.746950150E0
4.933088748E0,-4.258049965E0,6.739950180E0,-5.850000381E0
4.935622515E0,-4.276950359E0,6.757050514E0,-5.943000317E0
4.938156056E0,-4.153050423E0,6.771000385E0,-5.941050053E0
4.940689669E0,-3.886950254E0,6.679950237E0,-5.922000408E0
4.943223438E0,-3.571050167E0,6.642000198E0,-5.866950512E0
4.945757061E0,-3.280950069E0,6.682950497E0,-5.722950459E0
4.948290599E0,-3.286050081E0,6.654000282E0,-5.788050175E0
4.950824366E0,-3.336000204E0,6.586950302E0,-5.773050308E0
4.953357984E0,-3.396000147E0,6.622950077E0,-5.802000046E0
4.955891741E0,-3.520950079E0,6.654000282E0,-5.850000381E0
4.958425358E0,-3.703050137E0,6.597000122E0,-5.776050091E0
4.960958897E0,-3.753000259E0,6.582000256E0,-5.742000103E0
4.963492664E0,-3.681000233E0,6.529950142E0,-5.725050449E0
4.966026248E0,-3.715050220E0,6.628050327E0,-5.730000496E0
4.968560016E0,-3.631050110E0,6.618000507E0,-5.572050095E0
4.971093556E0,-3.559050083E0,6.793050289E0,-5.935950279E0
4.973627170E0,-3.597000122E0,6.862050533E0,-5.776050091E0
4.976160934E0,-3.631050110E0,7.030050278E0,-5.737050056E0
4.978694474E0,-3.477000237E0,7.303050518E0,-5.803950310E0
4.981228088E0,-3.693000078E0,7.420050144E0,-5.814000130E0
4.983761857E0,-4.045050144E0,7.356000423E0,-5.698950291E0
4.986295483E0,-4.182000160E0,7.297950268E0,-5.658000469E0
4.988829250E0,-4.264950275E0,7.264950275E0,-5.685000420E0
4.991362791E0,-4.408950329E0,7.341000557E0,-5.680050373E0
4.993896404E0,-4.765950203E0,7.309950352E0,-5.941050053E0
4.996430179E0,-4.948050022E0,7.234050274E0,-6.255000114E0
4.998963796E0,-4.183950424E0,7.159050465E0,-5.725050449E0
5.001497563E0,-3.961050272E0,7.162050247E0,-6.097050190E0
5.004031181E0,-3.682950258E0,6.831000328E0,-6.729000092E0
5.006564748E0,-3.145050049E0,6.906000137E0,-5.515050411E0
5.009098515E0,-2.979000092E0,6.931950092E0,-5.668050289E0
5.011632056E0,-3.001050234E0,6.766950130E0,-6.379050255E0
5.014165900E0,-3.694950104E0,6.640050411E0,-6.754950523E0
5.016699445E0,-3.906000137E0,6.823950291E0,-5.838000298E0
5.019233061E0,-4.528950214E0,6.949050426E0,-5.938050270E0
5.021766828E0,-5.167950153E0,7.059000492E0,-5.803950310E0
5.024300368E0,-4.660950184E0,6.964950562E0,-5.790000439E0
5.026833987E0,-4.300950050E0,6.988950253E0,-5.974050522E0
5.029367756E0,-4.014000416E0,6.862050533E0,-6.286050320E0
5.031901374E0,-4.356000423E0,6.882000446E0,-6.372000217E0
5.034435141E0,-4.525950432E0,6.871950150E0,-6.337950230E0
5.036968690E0,-3.988050222E0,6.688050270E0,-6.432000160E0
5.039502304E0,-3.523050070E0,6.501000404E0,-6.231000423E0
5.042036073E0,-4.024050236E0,6.510000229E0,-6.058050156E0
5.044569690E0,-4.085999966E0,6.441000462E0,-6.136950493E0
5.047103248E0,-3.501000166E0,6.276000500E0,-6.028950214E0
5.049637015E0,-4.195950031E0,6.240000248E0,-6.079950333E0
5.052170632E0,-6.154950142E0,6.436050415E0,-6.456000328E0
5.054704400E0,-4.711050034E0,6.253950119E0,-6.255000114E0
5.057238017E0,-3.882000208E0,6.027000427E0,-6.409950256E0
5.059771555E0,-3.958950281E0,5.932950497E0,-6.477000237E0
5.062305323E0,-5.800950050E0,6.096000195E0,-6.753000259E0
5.064838940E0,-5.449050426E0,6.193950176E0,-6.453000069E0
5.067372698E0,-5.179950237E0,6.199050426E0,-6.429000378E0
5.069906316E0,-5.367000103E0,6.429000378E0,-6.370050430E0
5.072439854E0,-3.922950268E0,6.409950256E0,-5.950050354E0
5.074973621E0,-3.445950270E0,6.544050217E0,-6.166050434E0
5.077507243E0,-3.613950253E0,6.822000504E0,-6.316950321E0
5.080040781E0,-3.882000208E0,7.032000542E0,-6.202050209E0
5.082574548E0,-4.099950314E0,7.080000401E0,-6.103950500E0
5.085108166E0,-4.201050282E0,7.066050529E0,-5.986050129E0
5.087641924E0,-4.215000153E0,7.003950119E0,-5.929050446E0
5.090175465E0,-4.050000191E0,6.870000362E0,-5.874000072E0
5.092709309E0,-3.949050188E0,6.769050121E0,-5.898000240E0
5.095242849E0,-3.882000208E0,6.769050121E0,-5.941050053E0
5.097776412E0,-3.943950176E0,6.730950356E0,-5.998050213E0
5.100310179E0,-4.027950287E0,6.766950130E0,-6.063000202E0
5.102843719E0,-4.122000217E0,6.858000278E0,-6.070050240E0
5.105377333E0,-4.203000069E0,6.915000439E0,-6.079950333E0
5.107911106E0,-4.285050392E0,6.918000221E0,-6.058050156E0
5.110444723E0,-4.419000149E0,6.970050335E0,-6.016950130E0
5.112978262E0,-4.414050102E0,6.987000465E0,-6.040950298E0
5.115512029E0,-4.396950245E0,6.987000465E0,-6.028950214E0
5.118045656E0,-4.416000366E0,6.997050285E0,-5.983950138E0
5.120579424E0,-4.462050438E0,6.987000465E0,-5.998050213E0
5.123113041E0,-4.540950298E0,6.922050476E0,-6.003000259E0
5.125646579E0,-4.560000420E0,6.865050316E0,-6.039000511E0
5.128180366E0,-4.459050179E0,6.889050484E0,-6.052950382E0
5.130713983E0,-4.258049965E0,6.865050316E0,-5.991000175E0
5.133247750E0,-4.085999966E0,6.807000160E0,-5.875950336E0
5.135781291E0,-4.009050369E0,6.793050289E0,-5.887950420E0
5.138314923E0,-3.906000137E0,6.853050232E0,-5.898000240E0
5.140848692E0,-3.856050253E0,6.858000278E0,-5.914050102E0
5.143382233E0,-3.748050213E0,6.817050457E0,-5.991000175E0
5.145915846E0,-3.810000181E0,6.835950375E0,-5.970000267E0
5.148449616E0,-3.774000168E0,6.783000469E0,-5.898000240E0
5.150983233E0,-3.643050194E0,6.703950405E0,-5.794950485E0
5.153517000E0,-3.589950085E0,6.730950356E0,-5.752050400E0
5.156050618E0,-3.694950104E0,6.771000385E0,-5.874000072E0
5.158584176E0,-3.748050213E0,6.829050541E0,-5.955000401E0
5.161117943E0,-4.006950378E0,6.937050343E0,-6.034050465E0
5.163651561E0,-4.276950359E0,6.967950344E0,-6.010050297E0
5.166185099E0,-4.513950348E0,7.006050110E0,-5.893050194E0
5.168718880E0,-4.543050289E0,6.958050251E0,-5.790000439E0
5.171252498E0,-4.582050323E0,6.859950542E0,-5.839950085E0
5.173786265E0,-4.711050034E0,6.715950489E0,-6.001050472E0
5.176319882E0,-4.867050171E0,6.654000282E0,-6.094050407E0
5.178853421E0,-4.879050255E0,6.738000393E0,-6.087000370E0
5.181387188E0,-4.780050278E0,6.769050121E0,-6.055950165E0
5.183920805E0,-4.612950325E0,6.805050373E0,-5.994000435E0
5.186454573E0,-4.359000206E0,6.817050457E0,-6.022050381E0
5.188988122E0,-4.171950340E0,6.814950466E0,-6.001050472E0
5.191521966E0,-4.093050003E0,6.847950459E0,-5.986050129E0
5.194055507E0,-4.009050369E0,6.759000301E0,-6.004950523E0
5.196589122E0,-4.027950287E0,6.709050179E0,-5.994000435E0
5.199122676E0,-4.003950119E0,6.618000507E0,-6.010050297E0
5.201656443E0,-3.973050117E0,6.469950199E0,-5.962050438E0
5.204190060E0,-3.849000216E0,6.336000443E0,-5.989050388E0
5.206723828E0,-3.820050240E0,6.184950352E0,-6.031950474E0
5.209257445E0,-3.810000181E0,6.004950523E0,-6.100950241E0
5.211790983E0,-3.754950285E0,5.835000515E0,-6.103950500E0
5.214324751E0,-3.781950235E0,5.614950180E0,-6.156000137E0
5.216858368E0,-3.838950157E0,5.461050034E0,-6.255000114E0
5.219392144E0,-3.865050077E0,5.385000229E0,-6.286050320E0
5.221925762E0,-3.882000208E0,5.263050079E0,-6.325950146E0
5.224459300E0,-3.838950157E0,5.209950447E0,-6.337950230E0
5.226993067E0,-3.750000238E0,5.148000240E0,-6.307050228E0
5.229526618E0,-3.636000156E0,5.056950092E0,-6.156000137E0
5.232060462E0,-3.643050194E0,5.076000214E0,-6.112950325E0
5.234594002E0,-3.703050137E0,5.131050110E0,-6.147000313E0
5.237127618E0,-3.769950151E0,5.248050213E0,-6.148950100E0
5.239661371E0,-3.892050266E0,5.322000027E0,-6.159000397E0
5.242194988E0,-4.042950153E0,5.445000172E0,-6.112950325E0
5.244728527E0,-4.111950397E0,5.488050461E0,-6.123000145E0
5.247262294E0,-4.186050415E0,5.497050285E0,-6.147000313E0
5.249795926E0,-4.339950085E0,5.574000359E0,-6.240000248E0
5.252329693E0,-4.483050346E0,5.682000160E0,-6.283050060E0
5.254863233E0,-4.596000195E0,5.755950451E0,-6.259050369E0
5.257396847E0,-4.684950352E0,5.824950218E0,-6.183000088E0
5.259930650E0,-4.741950035E0,5.833050251E0,-6.124950409E0
5.262464267E0,-4.888050079E0,5.892000198E0,-6.118050098E0
5.264998035E0,-4.966950417E0,5.919000149E0,-6.097050190E0
5.267531575E0,-5.020050049E0,5.962050438E0,-5.977050304E0
5.270065164E0,-5.044050217E0,6.028950214E0,-5.910000324E0
5.272598934E0,-5.034000397E0,6.096000195E0,-5.863950253E0
5.275132474E0,-5.029050350E0,6.196950436E0,-5.809050083E0
5.277666087E0,-5.017050266E0,6.252000332E0,-5.826000214E0
