"Time (s)","Gyroscope x (rad/s)","Gyroscope y (rad/s)","Gyroscope z (rad/s)"
3.807113300E-2,8.222500235E-2,-4.949999973E-2,3.258749843E-2
4.060220800E-2,8.318749815E-2,-4.523750022E-2,2.942499891E-2
4.313582300E-2,8.538749814E-2,-4.001250118E-2,2.736249939E-2
4.566936200E-2,8.428750187E-2,-4.207500070E-2,2.626249939E-2
4.820312600E-2,8.428750187E-2,-3.684999794E-2,2.406249940E-2
5.073674100E-2,8.744999766E-2,-3.355000168E-2,2.089999989E-2
5.327051000E-2,8.744999766E-2,-2.928750031E-2,1.979999989E-2
5.580412600E-2,8.648750186E-2,-2.502499893E-2,1.773750037E-2
5.833768600E-2,8.648750186E-2,-2.406249940E-2,1.883750036E-2
6.087145400E-2,8.744999766E-2,-2.296249941E-2,1.773750037E-2
6.340507100E-2,8.648750186E-2,-2.296249941E-2,1.457499992E-2
6.593860900E-2,8.538749814E-2,-2.076249942E-2,1.457499992E-2
6.847238600E-2,8.222500235E-2,-1.869999990E-2,1.347499993E-2
7.100600300E-2,8.002500236E-2,-1.553750038E-2,1.553750038E-2
7.353977000E-2,7.576250285E-2,-1.759999990E-2,1.979999989E-2
7.607331100E-2,7.150000334E-2,-2.076249942E-2,1.883750036E-2
7.860690900E-2,7.150000334E-2,-2.186249942E-2,2.406249940E-2
8.114067800E-2,6.407500058E-2,-3.038750030E-2,2.736249939E-2
8.367421900E-2,6.297499686E-2,-3.355000168E-2,3.368749842E-2
8.620806300E-2,6.297499686E-2,-3.684999794E-2,4.111250117E-2
8.874158800E-2,6.091250107E-2,-3.684999794E-2,5.073750019E-2
9.127520400E-2,6.201250106E-2,-3.781250119E-2,5.816249922E-2
9.380897100E-2,5.981250107E-2,-3.575000167E-2,6.984999776E-2
9.634251200E-2,5.981250107E-2,-3.258749843E-2,7.727500051E-2
9.887613000E-2,6.297499686E-2,-2.722499892E-2,8.483749628E-2
1.014098990E-1,6.201250106E-2,-2.502499893E-2,8.910000324E-2
1.039434400E-1,5.871250108E-2,-2.296249941E-2,9.432499856E-2
1.064770530E-1,6.297499686E-2,-1.759999990E-2,1.050499976E-1
1.090108170E-1,6.407500058E-2,-1.443750039E-2,1.102750003E-1
1.115443580E-1,6.091250107E-2,-1.333750039E-2,1.102750003E-1
1.140782020E-1,6.091250107E-2,-1.333750039E-2,1.135749966E-1
1.166117420E-1,6.297499686E-2,-1.017499994E-2,1.178374961E-1
1.191453670E-1,6.627500057E-2,-4.812499974E-3,1.199000031E-1
1.216791340E-1,6.517499685E-2,-9.074999951E-3,1.209999993E-1
1.242126740E-1,6.833750010E-2,-1.127499994E-2,1.241625026E-1
1.267462880E-1,7.150000334E-2,-1.443750039E-2,1.295250058E-1
1.292800570E-1,7.576250285E-2,-1.759999990E-2,1.315875053E-1
1.318135980E-1,8.112499863E-2,-1.759999990E-2,1.347499937E-1
1.343472110E-1,8.428750187E-2,-1.869999990E-2,1.390125006E-1
1.368809800E-1,8.855000138E-2,-1.979999989E-2,1.390125006E-1
1.394145890E-1,9.501250088E-2,-2.186249942E-2,1.401125044E-1
1.419481270E-1,9.707500041E-2,-2.612499893E-2,1.412124932E-1
1.444818940E-1,1.002374962E-1,-2.832499892E-2,1.401125044E-1
1.470155120E-1,1.055999994E-1,-3.038750030E-2,1.423124969E-1
1.495492550E-1,1.098624989E-1,-3.684999794E-2,1.423124969E-1
1.520827950E-1,1.109625027E-1,-4.001250118E-2,1.423124969E-1
1.546164090E-1,1.152250022E-1,-4.537500069E-2,1.475374997E-1
1.571501780E-1,1.204499975E-1,-4.537500069E-2,1.475374997E-1
1.596836940E-1,1.215500012E-1,-4.537500069E-2,1.486375034E-1
1.622175380E-1,1.269125044E-1,-4.111250117E-2,1.443749964E-1
1.647510780E-1,1.300749928E-1,-4.001250118E-2,1.423124969E-1
1.672846940E-1,1.354375035E-1,-3.891250119E-2,1.412124932E-1
1.698182660E-1,1.375000030E-1,-3.464999795E-2,1.432749927E-1
1.723520330E-1,1.363999993E-1,-3.684999794E-2,1.423124969E-1
1.748856510E-1,1.311749965E-1,-4.633750021E-2,1.390125006E-1
1.774194180E-1,1.236125007E-1,-5.279999971E-2,1.412124932E-1
1.799529720E-1,1.183874980E-1,-5.486249924E-2,1.380500048E-1
1.824865860E-1,1.087625027E-1,-6.022499874E-2,1.337874979E-1
1.850203550E-1,9.913749993E-2,-6.228749827E-2,1.295250058E-1
1.875539720E-1,9.281250089E-2,-6.338749826E-2,1.241625026E-1
1.900875070E-1,8.648750186E-2,-6.655000150E-2,1.199000031E-1
1.926212740E-1,7.892499864E-2,-6.558749825E-2,1.124750003E-1
1.951548910E-1,7.796250284E-2,-6.132499874E-2,1.093124971E-1
1.976886590E-1,6.943749636E-2,-5.802499875E-2,9.226249903E-2
2.002221790E-1,7.053750008E-2,-5.706249923E-2,7.727500051E-2
2.027557930E-1,6.833750010E-2,-5.802499875E-2,6.668750197E-2
2.052895620E-1,6.723749638E-2,-5.596249923E-2,5.816249922E-2
2.078231790E-1,6.517499685E-2,-5.059999973E-2,4.853750020E-2
2.103567040E-1,6.627500057E-2,-4.743750021E-2,3.904999793E-2
2.128904710E-1,6.723749638E-2,-4.427500069E-2,2.942499891E-2
2.154240880E-1,6.407500058E-2,-3.891250119E-2,1.979999989E-2
2.179576270E-1,6.201250106E-2,-4.111250117E-2,1.237499993E-2
2.204913790E-1,6.407500058E-2,-3.781250119E-2,4.949999973E-3
2.230249960E-1,6.723749638E-2,-3.355000168E-2,-2.474999987E-3
2.255587640E-1,6.833750010E-2,-3.355000168E-2,-8.799999952E-3
2.280923810E-1,6.723749638E-2,-3.355000168E-2,-1.099999994E-2
2.306259240E-1,6.943749636E-2,-3.258749843E-2,-1.842499897E-2
2.331596920E-1,7.053750008E-2,-3.038750030E-2,-2.488750033E-2
2.356933090E-1,7.053750008E-2,-3.355000168E-2,-2.804999985E-2
2.382268480E-1,7.576250285E-2,-3.148749843E-2,-3.121249937E-2
2.407606300E-1,7.892499864E-2,-3.038750030E-2,-3.327500075E-2
2.432942470E-1,8.112499863E-2,-2.928750031E-2,-3.327500075E-2
2.458277860E-1,8.222500235E-2,-3.148749843E-2,-3.437500075E-2
2.483616300E-1,8.538749814E-2,-3.038750030E-2,-3.121249937E-2
2.508951800E-1,8.538749814E-2,-3.575000167E-2,-3.011249937E-2
2.534289470E-1,8.428750187E-2,-4.207500070E-2,-3.011249937E-2
2.559625650E-1,8.222500235E-2,-4.743750021E-2,-2.914999984E-2
2.584961030E-1,8.112499863E-2,-5.486249924E-2,-2.584999986E-2
2.610298760E-1,7.892499864E-2,-6.022499874E-2,-3.011249937E-2
2.635634930E-1,8.002500236E-2,-6.132499874E-2,-3.231250122E-2
2.660970310E-1,8.002500236E-2,-6.558749825E-2,-3.121249937E-2
2.686307990E-1,7.686249912E-2,-6.655000150E-2,-3.437500075E-2
2.711644010E-1,7.576250285E-2,-6.984999776E-2,-3.657500073E-2
2.736979400E-1,7.466249913E-2,-6.875000149E-2,-3.863750026E-2
2.762317070E-1,7.150000334E-2,-7.081250101E-2,-4.826249927E-2
2.787653240E-1,6.723749638E-2,-7.507500052E-2,-5.788749829E-2
2.812990770E-1,6.627500057E-2,-6.984999776E-2,-6.311249733E-2
2.838326950E-1,6.297499686E-2,-7.301250100E-2,-7.163749635E-2
2.863662330E-1,6.627500057E-2,-7.411249727E-2,-7.479999959E-2
2.889000010E-1,6.627500057E-2,-7.301250100E-2,-7.809999585E-2
2.914336280E-1,6.627500057E-2,-7.081250101E-2,-7.906249911E-2
2.939673950E-1,6.407500058E-2,-7.081250101E-2,-8.442500234E-2
2.965009360E-1,6.517499685E-2,-7.081250101E-2,-8.758749813E-2
2.990345490E-1,6.723749638E-2,-6.764999777E-2,-8.978749812E-2
3.015683030E-1,6.833750010E-2,-6.764999777E-2,-9.075000137E-2
3.041018440E-1,6.627500057E-2,-6.875000149E-2,-9.075000137E-2
3.066354570E-1,6.943749636E-2,-6.875000149E-2,-9.721250087E-2
3.091692260E-1,6.943749636E-2,-6.655000150E-2,-1.003749967E-1
3.117028630E-1,6.723749638E-2,-6.132499874E-2,-9.831249714E-2
3.142364010E-1,7.053750008E-2,-5.596249923E-2,-1.035374999E-1
3.167701680E-1,7.259999961E-2,-5.169999972E-2,-1.025749967E-1
3.193037860E-1,7.576250285E-2,-4.317500070E-2,-9.831249714E-2
3.218375920E-1,7.796250284E-2,-4.001250118E-2,-9.721250087E-2
3.243711330E-1,7.796250284E-2,-3.355000168E-2,-8.868750185E-2
3.269047460E-1,8.428750187E-2,-2.612499893E-2,-8.332499862E-2
3.294385150E-1,8.855000138E-2,-1.759999990E-2,-8.126249909E-2
3.319721040E-1,8.855000138E-2,-1.237499993E-2,-7.906249911E-2
3.345056420E-1,8.855000138E-2,-1.017499994E-2,-7.590000331E-2
3.370394090E-1,9.075000137E-2,-1.127499994E-2,-6.957499683E-2
3.395730270E-1,9.281250089E-2,-1.017499994E-2,-6.201250106E-2
3.421067800E-1,9.281250089E-2,-1.017499994E-2,-5.788749829E-2
3.446403200E-1,9.391249716E-2,-1.663750038E-2,-5.252499878E-2
3.471739340E-1,8.964999765E-2,-2.832499892E-2,-4.179999977E-2
3.497077030E-1,8.648750186E-2,-3.891250119E-2,-2.584999986E-2
3.522412430E-1,8.744999766E-2,-4.853750020E-2,-1.416249946E-2
3.547748570E-1,7.686249912E-2,-5.059999973E-2,1.787499990E-3
3.573086260E-1,7.150000334E-2,-5.059999973E-2,1.567500085E-2
3.598422430E-1,7.150000334E-2,-4.111250117E-2,2.199999988E-2
3.623759820E-1,7.369999588E-2,-2.832499892E-2,3.052499890E-2
3.649095220E-1,7.259999961E-2,-1.553750038E-2,3.162499890E-2
3.674431360E-1,7.369999588E-2,-3.849999979E-3,3.368749842E-2
3.699769050E-1,7.259999961E-2,7.837500423E-3,3.478749841E-2
3.725104590E-1,7.259999961E-2,1.319999993E-2,3.368749842E-2
3.750440730E-1,7.466249913E-2,1.746249944E-2,3.478749841E-2
3.775778420E-1,7.576250285E-2,2.172499895E-2,3.684999794E-2
3.801114590E-1,7.686249912E-2,1.966249943E-2,3.478749841E-2
3.826450120E-1,8.002500236E-2,1.539999992E-2,3.368749842E-2
3.851787790E-1,8.538749814E-2,1.856249943E-2,3.162499890E-2
3.877123960E-1,8.964999765E-2,1.966249943E-2,2.832499892E-2
3.902461640E-1,9.501250088E-2,1.539999992E-2,2.832499892E-2
3.927796850E-1,9.817499667E-2,1.003750041E-2,2.626249939E-2
3.953132980E-1,1.033999994E-1,1.003750041E-2,2.626249939E-2
3.978470680E-1,1.087625027E-1,6.874999963E-3,2.626249939E-2
4.003806080E-1,1.152250022E-1,2.612499986E-3,2.406249940E-2
4.029142410E-1,1.247124970E-1,2.612499986E-3,2.406249940E-2
4.054480100E-1,1.354375035E-1,4.124999978E-4,2.516249940E-2
4.079816270E-1,1.428624988E-1,-5.912499968E-3,2.626249939E-2
4.105151660E-1,1.534499973E-1,-1.017499994E-2,2.516249940E-2
4.130489430E-1,1.641750038E-1,-9.074999951E-3,2.832499892E-2
4.155825600E-1,1.758625060E-1,-9.074999951E-3,2.516249940E-2
4.181163280E-1,1.907124966E-1,-1.017499994E-2,2.406249940E-2
4.206499450E-1,2.098249942E-1,-4.812499974E-3,2.199999988E-2
4.231834640E-1,2.268749923E-1,-1.649999991E-3,1.457499992E-2
4.257172320E-1,2.385624945E-1,7.837500423E-3,2.887499984E-3
4.282508490E-1,2.556124926E-1,1.746249944E-2,-1.306249946E-2
4.307843870E-1,2.748624980E-1,3.024999984E-2,-2.488750033E-2
4.333181550E-1,2.928749919E-1,4.083750024E-2,-4.399999976E-2
4.358517720E-1,3.110249937E-1,4.936249927E-2,-6.737499684E-2
4.383853110E-1,3.312374949E-1,5.266249925E-2,-8.648750186E-2
4.409190780E-1,3.492499888E-1,3.657500073E-2,-1.120624989E-1
4.434527280E-1,3.705624938E-1,2.488750033E-2,-1.313125044E-1
4.459864950E-1,3.993000090E-1,1.209999993E-2,-1.450625062E-1
4.485201130E-1,4.302375019E-1,-4.812499974E-3,-1.578499973E-1
4.510536510E-1,4.621374905E-1,-1.979999989E-2,-1.674750000E-1
4.535874000E-1,4.929375052E-1,-3.781250119E-2,-1.791625023E-1
4.561210170E-1,5.248374939E-1,-5.059999973E-2,-1.886499971E-1
4.586545550E-1,5.589374900E-1,-6.338749826E-2,-1.962125003E-1
4.611883230E-1,5.887749791E-1,-6.875000149E-2,-2.036374956E-1
4.637219540E-1,6.153125167E-1,-7.081250101E-2,-2.121624947E-1
4.662557210E-1,6.462500095E-1,-7.823749632E-2,-2.164250016E-1
4.687892620E-1,6.696249843E-1,-7.727500051E-2,-2.153249979E-1
4.713228750E-1,6.919000149E-1,-8.153750002E-2,-2.110625058E-1
4.738566300E-1,7.079874873E-1,-1.112374961E-1,-2.025374919E-1
4.763902480E-1,7.387874722E-1,-1.357125044E-1,-1.971749961E-1
4.789237860E-1,7.664250135E-1,-1.049124971E-1,-1.865874976E-1
4.814575530E-1,7.781124711E-1,-9.638749808E-2,-1.737999916E-1
4.839911520E-1,7.930999994E-1,-1.080750003E-1,-1.621125042E-1
4.865246900E-1,8.047875166E-1,-1.006499976E-1,-1.557874978E-1
4.890584580E-1,8.133124709E-1,-1.017500013E-1,-1.524875015E-1
4.915920750E-1,8.260999918E-1,-1.060125008E-1,-1.567499936E-1
4.941258660E-1,8.398500085E-1,-1.038125008E-1,-1.610125005E-1
4.966594070E-1,8.526374698E-1,-1.027124971E-1,-1.684374958E-1
4.991930200E-1,8.622624874E-1,-1.187999994E-1,-1.834249943E-1
5.017267890E-1,8.717499971E-1,-1.453374922E-1,-1.971749961E-1
5.042603920E-1,8.782125115E-1,-1.644500047E-1,-2.110625058E-1
5.067941590E-1,8.835750222E-1,-1.996500045E-1,-2.301750034E-1
5.093276990E-1,8.920999765E-1,-2.369125038E-1,-2.451625019E-1
5.118613130E-1,8.952624798E-1,-2.815999985E-1,-2.685374916E-1
5.143950820E-1,8.920999765E-1,-3.454000056E-1,-2.993375063E-1
5.169286220E-1,8.760125041E-1,-4.050749838E-1,-3.345375061E-1
5.194622360E-1,8.568999767E-1,-4.412375093E-1,-3.749625087E-1
5.219960050E-1,8.260999918E-1,-4.497624934E-1,-4.175874889E-1
5.245296220E-1,7.845749855E-1,-4.262500107E-1,-4.632374942E-1
5.270631610E-1,7.249000072E-1,-3.975124955E-1,-5.069624782E-1
5.295969280E-1,6.568375230E-1,-3.687750101E-1,-5.484874845E-1
5.321305460E-1,5.897374749E-1,-3.294500113E-1,-5.750250220E-1
5.346643080E-1,5.163124800E-1,-2.943874896E-1,-5.931749940E-1
5.371978480E-1,4.408249855E-1,-2.645500004E-1,-5.995000005E-1
5.397314620E-1,3.759250045E-1,-2.443374991E-1,-5.889124870E-1
5.422652310E-1,3.238124847E-1,-2.252250016E-1,-5.707625151E-1
5.447987620E-1,2.822875082E-1,-2.081750035E-1,-5.462874770E-1
5.473323760E-1,2.503874898E-1,-1.942874938E-1,-5.143874884E-1
5.498661450E-1,2.290749997E-1,-1.846625060E-1,-4.760249853E-1
5.523996850E-1,2.194499969E-1,-1.836999953E-1,-4.377999902E-1
5.549335300E-1,2.140875012E-1,-1.815000027E-1,-3.962749839E-1
5.574670700E-1,2.109249979E-1,-1.889249980E-1,-3.568125069E-1
5.600006850E-1,2.098249942E-1,-2.017125040E-1,-3.195500076E-1
5.625344530E-1,2.140875012E-1,-2.144999951E-1,-2.887499928E-1
5.650679970E-1,2.162874937E-1,-2.315499932E-1,-2.589125037E-1
5.676016110E-1,2.183499932E-1,-2.421374917E-1,-2.377374917E-1
5.701353800E-1,2.216500044E-1,-2.528625131E-1,-2.195875049E-1
5.726689970E-1,2.248124927E-1,-2.623499930E-1,-2.056999952E-1
5.752025160E-1,2.248124927E-1,-2.741749883E-1,-1.971749961E-1
5.777362830E-1,2.226125002E-1,-2.953499854E-1,-1.908500046E-1
5.802699000E-1,2.259124964E-1,-3.155624866E-1,-1.886499971E-1
5.828036680E-1,2.216500044E-1,-3.326124847E-1,-1.929125041E-1
5.853373140E-1,2.183499932E-1,-3.507624865E-1,-1.919499934E-1
5.878708520E-1,2.120250016E-1,-3.752374947E-1,-1.897500008E-1
5.904046200E-1,2.023999989E-1,-3.986124992E-1,-1.854874939E-1
5.929382370E-1,1.938749999E-1,-4.219875038E-1,-1.802625060E-1
5.954717700E-1,1.810874939E-1,-4.464625120E-1,-1.759999990E-1
5.980055380E-1,1.725624949E-1,-4.666749835E-1,-1.717374921E-1
6.005391550E-1,1.641750038E-1,-4.785000086E-1,-1.641750038E-1
6.030726940E-1,1.588124931E-1,-4.879874885E-1,-1.557874978E-1
6.056064520E-1,1.545500010E-1,-4.911499918E-1,-1.439625025E-1
6.081400690E-1,1.491875052E-1,-5.007749796E-1,-1.333750039E-1
6.106736080E-1,1.385999918E-1,-5.081999898E-1,-1.237500012E-1
6.132074520E-1,1.332374960E-1,-5.167250037E-1,-1.109625027E-1
6.157410010E-1,1.289750040E-1,-5.274500251E-1,-9.721250087E-2
6.182747690E-1,1.119249985E-1,-5.433999896E-1,-7.809999585E-2
6.208083860E-1,9.707500041E-2,-5.571500063E-1,-6.311249733E-2
6.233419240E-1,8.648750186E-2,-5.561875105E-1,-5.032499880E-2
6.258757020E-1,8.112499863E-2,-5.476624966E-1,-4.716249928E-2
6.284093190E-1,8.428750187E-2,-5.433999896E-1,-4.936249927E-2
6.309430860E-1,8.744999766E-2,-5.411999822E-1,-5.995000154E-2
6.334766270E-1,9.391249716E-2,-5.369374752E-1,-6.847500056E-2
6.360102450E-1,1.055999994E-1,-5.252500176E-1,-8.016250283E-2
6.385440140E-1,1.119249985E-1,-5.135625005E-1,-9.831249714E-2
6.410776320E-1,1.141249985E-1,-5.092999935E-1,-1.088999957E-1
6.436113990E-1,1.109625027E-1,-5.029749870E-1,-1.259499937E-1
6.461449480E-1,1.044999957E-1,-4.954124987E-1,-1.396999955E-1
6.486785620E-1,9.817499667E-2,-4.911499918E-1,-1.515250057E-1
6.512123310E-1,8.744999766E-2,-4.976125062E-1,-1.652749926E-1
6.537458720E-1,6.723749638E-2,-5.092999935E-1,-1.780624986E-1
6.562794850E-1,6.297499686E-2,-5.209875107E-1,-1.791625023E-1
6.588132540E-1,1.109625027E-1,-5.528874993E-1,-1.717374921E-1
6.613467950E-1,1.630750000E-1,-5.773624778E-1,-1.695374995E-1
6.638806390E-1,1.480875015E-1,-5.678749681E-1,-1.461624950E-1
6.664141980E-1,8.002500236E-2,-5.284125209E-1,-9.184999764E-2
6.689478140E-1,-3.024999984E-3,-4.890874922E-1,-4.826249927E-2
6.714815810E-1,-7.644999772E-2,-4.763000011E-1,-1.732499897E-2
6.740151210E-1,-1.348875016E-1,-4.731374979E-1,2.887499984E-3
6.765487310E-1,-1.710499972E-1,-4.401375055E-1,1.979999989E-2
6.790825000E-1,-1.743499935E-1,-3.911874890E-1,3.684999794E-2
6.816160400E-1,-1.476749927E-1,-3.240875006E-1,4.647500068E-2
6.841496540E-1,-1.115124971E-1,-2.602874935E-1,5.279999971E-2
6.866834370E-1,-7.535000145E-2,-2.007499933E-1,5.279999971E-2
6.892170540E-1,-5.293750018E-2,-1.410750002E-1,5.183750018E-2
6.917505930E-1,-4.977500066E-2,-7.823749632E-2,5.706249923E-2
6.942843980E-1,-6.256250292E-2,-2.502499893E-2,6.668750197E-2
6.968180500E-1,-8.071249723E-2,1.429999992E-2,8.153750002E-2
6.993517130E-1,-1.040875018E-1,4.729999974E-2,9.858749807E-2
7.018958600E-1,-1.306249946E-1,9.308750182E-2,1.241625026E-1
7.044189390E-1,-1.593624949E-1,1.398375034E-1,1.507000029E-1
7.069527060E-1,-1.880999953E-1,1.813624948E-1,1.677500010E-1
7.094863210E-1,-2.125750035E-1,2.399374992E-1,1.805374920E-1
7.120198650E-1,-2.360875010E-1,3.048374951E-1,1.890625060E-1
7.145536340E-1,-2.572624981E-1,3.612124920E-1,1.955250055E-1
7.170872490E-1,-2.657875121E-1,4.059000015E-1,1.964875013E-1
7.196207900E-1,-2.700499892E-1,4.474250078E-1,1.964875013E-1
7.221545430E-1,-2.594625056E-1,4.878500104E-1,1.933249980E-1
7.246881600E-1,-2.381500006E-1,5.134249926E-1,1.901624948E-1
7.272219280E-1,-2.147749960E-1,5.325375199E-1,1.816374958E-1
7.297555450E-1,-1.903000027E-1,5.506874919E-1,1.645874977E-1
7.322890600E-1,-1.710499972E-1,5.634750128E-1,1.443749964E-1
7.348228270E-1,-1.561999917E-1,5.601750016E-1,1.304875016E-1
7.373564440E-1,-1.476749927E-1,5.484874845E-1,1.124750003E-1
7.398899830E-1,-1.498750001E-1,5.336375237E-1,9.652499855E-2
7.424237600E-1,-1.593624949E-1,5.208500028E-1,8.057499677E-2
7.449573770E-1,-1.806750000E-1,5.017374754E-1,6.242499873E-2
7.474911450E-1,-2.030874938E-1,4.815250039E-1,4.757500067E-2
7.500246850E-1,-2.211000025E-1,4.676375091E-1,2.942499891E-2
7.525582840E-1,-2.381500006E-1,4.463250041E-1,1.031249948E-2
7.550920540E-1,-2.529999912E-1,4.283125103E-1,-1.732499897E-2
7.576256710E-1,-2.594625056E-1,4.207499921E-1,-4.716249928E-2
7.601594380E-1,-2.626250088E-1,4.144249856E-1,-7.809999585E-2
7.626929930E-1,-2.657875121E-1,4.038375020E-1,-1.142624989E-1
7.652266060E-1,-2.668874860E-1,3.878875077E-1,-1.461624950E-1
7.677603750E-1,-2.657875121E-1,3.708375096E-1,-1.727000028E-1
7.702939160E-1,-2.679874897E-1,3.537875116E-1,-1.919499934E-1
7.728275340E-1,-2.700499892E-1,3.271124959E-1,-2.025374919E-1
7.753613030E-1,-2.711499929E-1,2.963125110E-1,-2.099625021E-1
7.778949210E-1,-2.828375101E-1,2.611125112E-1,-2.195875049E-1
7.804284590E-1,-2.934249938E-1,2.345750034E-1,-2.206874937E-1
7.829622350E-1,-3.147374988E-1,2.164250016E-1,-2.153249979E-1
7.854958520E-1,-3.434749842E-1,2.037750036E-1,-1.951124966E-1
7.880296190E-1,-3.733125031E-1,1.856250018E-1,-1.641750038E-1
7.905631600E-1,-3.966875076E-1,1.654125005E-1,-1.248499975E-1
7.930967600E-1,-4.137375057E-1,1.696749926E-1,-6.311249733E-2
7.956305290E-1,-4.361499846E-1,1.771000028E-1,1.567500085E-2
7.981641470E-1,-4.573250115E-1,1.887875050E-1,8.910000324E-2
8.006976850E-1,-4.732750058E-1,2.197249979E-1,1.486375034E-1
8.032314650E-1,-4.860624969E-1,2.792625129E-1,2.124374956E-1
8.057650830E-1,-5.020124912E-1,3.420999944E-1,2.891624868E-1
8.082988500E-1,-5.329499841E-1,3.878875077E-1,3.592875004E-1
8.108323900E-1,-5.670499802E-1,4.452250004E-1,4.210250080E-1
8.133660240E-1,-6.052749753E-1,5.048999786E-1,4.796000123E-1
8.158997930E-1,-6.393749714E-1,5.581125021E-1,5.317124724E-1
8.184334100E-1,-6.638500094E-1,6.155874729E-1,5.743374825E-1
8.209669490E-1,-6.701750159E-1,6.815875173E-1,6.136624813E-1
8.235007110E-1,-6.553249955E-1,7.262749672E-1,6.765000224E-1
8.260343290E-1,-6.478999853E-1,7.475875020E-1,7.371374965E-1
8.285678670E-1,-6.351125240E-1,7.741249800E-1,7.807250023E-1
8.311017110E-1,-6.180624962E-1,8.188124895E-1,8.222500086E-1
8.336352610E-1,-6.010124683E-1,8.634999990E-1,8.648750186E-1
8.361690280E-1,-5.915250182E-1,9.070875049E-1,8.988375068E-1
8.387025680E-1,-5.935875177E-1,9.486125112E-1,9.255124927E-1
8.412361820E-1,-5.893250108E-1,9.858750105E-1,9.510874748E-1
8.437699800E-1,-5.659499764E-1,1.024237514E0,9.744625092E-1
8.463035970E-1,-5.372124910E-1,1.052974939E0,9.978374839E-1
8.488371360E-1,-5.053125024E-1,1.058337450E0,1.020249963E0
8.513709800E-1,-4.680500031E-1,1.050775051E0,1.046787500E0
8.539045350E-1,-4.318875074E-1,1.018875003E0,1.067000031E0
8.564383030E-1,-3.935250044E-1,9.838125110E-1,1.079787493E0
8.589718430E-1,-3.551625013E-1,9.497125149E-1,1.079787493E0
8.615054570E-1,-3.169375062E-1,9.124500155E-1,1.064937472E0
8.640391970E-1,-2.860000134E-1,8.666625023E-1,1.040462494E0
8.665728140E-1,-2.637250125E-1,8.284375072E-1,1.001000047E0
8.691065810E-1,-2.402125001E-1,7.922750115E-1,9.510874748E-1
8.716401220E-1,-2.073500007E-1,7.592750192E-1,8.850874901E-1
8.741737440E-1,-1.775124967E-1,7.347999811E-1,8.137249947E-1
8.767075140E-1,-1.541374922E-1,7.166500092E-1,7.297124863E-1
8.792410540E-1,-1.317249984E-1,7.038624883E-1,6.424000263E-1
8.817748980E-1,-1.231999993E-1,6.901124716E-1,5.552250147E-1
8.843084680E-1,-1.115124971E-1,6.719624996E-1,4.679124951E-1
8.868420830E-1,-1.115124971E-1,6.538124681E-1,3.817000091E-1
8.893756210E-1,-1.135749966E-1,6.304374933E-1,3.093749881E-1
8.919093890E-1,-1.126125008E-1,5.953750014E-1,2.359499931E-1
8.944430010E-1,-1.231999993E-1,5.495874882E-1,1.645874977E-1
8.969767680E-1,-1.296624988E-1,4.889499843E-1,1.102750003E-1
8.995103090E-1,-1.370874941E-1,4.303750098E-1,5.926249921E-2
9.020439220E-1,-1.519374996E-1,3.632749915E-1,1.141249947E-2
9.045776910E-1,-1.786125004E-1,3.068999946E-1,-2.062499896E-2
9.071112320E-1,-2.094125003E-1,2.675749958E-1,-5.142499879E-2
9.096448450E-1,-2.424124926E-1,2.356749922E-1,-7.479999959E-2
9.121786150E-1,-2.637250125E-1,2.228875011E-1,-9.295000136E-2
9.147122370E-1,-2.785750031E-1,2.206874937E-1,-1.131625026E-1
9.172460040E-1,-2.807750106E-1,2.249500006E-1,-1.333750039E-1
9.197795450E-1,-2.679874897E-1,2.431000024E-1,-1.493249983E-1
9.223131580E-1,-2.551999986E-1,2.761000097E-1,-1.600500047E-1
9.248469030E-1,-2.477750033E-1,3.293125033E-1,-1.621125042E-1
9.273805210E-1,-2.424124926E-1,3.942124844E-1,-1.632124931E-1
9.299140590E-1,-2.529999912E-1,4.761624932E-1,-1.567499936E-1
9.324478260E-1,-2.722499967E-1,5.666375160E-1,-1.600500047E-1
9.349814200E-1,-2.870999873E-1,6.528499722E-1,-1.600500047E-1
9.375149580E-1,-2.817375064E-1,7.433249950E-1,-1.557874978E-1
9.400488020E-1,-2.477750033E-1,8.336625099E-1,-1.472624987E-1
9.425823430E-1,-2.487374991E-1,9.241374731E-1,-1.248499975E-1
9.451160960E-1,-2.754124999E-1,1.008287549E0,-7.809999585E-2
9.476497130E-1,-2.956250012E-1,1.049812436E0,-2.062499896E-2
9.501832520E-1,-3.201000094E-1,1.046512485E0,4.331250116E-2
9.527170190E-1,-3.297249973E-1,1.022037506E0,1.124750003E-1
9.552506410E-1,-3.339875042E-1,9.678624868E-1,1.859000027E-1
9.577844080E-1,-3.403125107E-1,8.848124743E-1,2.689499855E-1
9.603179480E-1,-3.434749842E-1,7.709624767E-1,3.508999944E-1
9.628515620E-1,-3.328875005E-1,6.133875251E-1,4.285874963E-1
9.653853170E-1,-3.126749992E-1,4.272125065E-1,4.998124838E-1
9.679188570E-1,-2.828375101E-1,2.356749922E-1,5.678749681E-1
9.704527020E-1,-2.572624981E-1,3.341250122E-2,6.338750124E-1
9.729862420E-1,-2.349874973E-1,-1.720124930E-1,6.967124939E-1
9.755198570E-1,-2.136749923E-1,-3.806000054E-1,7.434625030E-1
9.780536250E-1,-1.955250055E-1,-5.944125056E-1,7.764624953E-1
9.805871650E-1,-1.700875014E-1,-8.040999770E-1,8.042374849E-1
9.831207780E-1,-1.487749964E-1,-9.978374839E-1,8.170250058E-1
9.856545720E-1,-1.296624988E-1,-1.170125008E0,8.201875091E-1
9.881881120E-1,-1.104125008E-1,-1.316012502E0,8.073999882E-1
9.907217260E-1,-8.910000324E-2,-1.421337485E0,7.712374926E-1
9.932554950E-1,-6.036249921E-2,-1.478812456E0,7.200874686E-1
9.957890260E-1,-2.956249937E-2,-1.509612441E0,6.626124978E-1
9.983228700E-1,9.762499481E-3,-1.544812441E0,6.008750200E-1
1.000856411E0,6.201250106E-2,-1.577812433E0,5.381749868E-1
1.003390026E0,1.289750040E-1,-1.604349971E0,4.827624857E-1
1.005923774E0,1.981374919E-1,-1.611775041E0,4.445374906E-1
1.008457391E0,2.673000097E-1,-1.607512474E0,4.158000052E-1
1.010990929E0,3.482874930E-1,-1.580974936E0,3.955875039E-1
1.013524697E0,4.323000014E-1,-1.529824972E0,3.870624900E-1
1.016058334E0,5.153499842E-1,-1.453237534E0,3.987500072E-1
1.018591872E0,5.930374861E-1,-1.358500004E0,4.274874926E-1
1.021125640E0,6.621999741E-1,-1.246850014E0,4.785000086E-1
1.023659257E0,7.249000072E-1,-1.146749973E0,5.839625001E-1
1.026192800E0,7.771499753E-1,-1.043487549E0,6.913499832E-1
1.028726644E0,7.919999957E-1,-9.201499820E-1,7.562500238E-1
1.031260184E0,7.994250059E-1,-7.710999846E-1,8.148249984E-1
1.033793951E0,7.962625027E-1,-5.849249959E-1,8.574500084E-1
1.036327541E0,7.919999957E-1,-3.889875114E-1,8.722999692E-1
1.038861079E0,7.899374962E-1,-2.167000026E-1,8.680375218E-1
1.041394847E0,8.122124672E-1,-4.949999973E-2,8.637750149E-1
1.043928464E0,8.218374848E-1,1.281500012E-1,8.381999731E-1
1.046462222E0,8.175749779E-1,2.888875008E-1,7.999749780E-1
1.048995763E0,8.090500236E-1,4.123624861E-1,7.541875243E-1
1.051529376E0,7.877374887E-1,5.219500065E-1,6.978124976E-1
1.054063145E0,7.686250210E-1,6.219124794E-1,6.540874839E-1
1.056596768E0,7.558375001E-1,6.825500131E-1,6.062374711E-1
1.059130535E0,7.387874722E-1,7.112874985E-1,5.552250147E-1
1.061664075E0,7.249000072E-1,6.879125237E-1,5.094375014E-1
1.064197689E0,7.271000147E-1,6.124249697E-1,4.690124989E-1
1.066731477E0,7.313625216E-1,5.399624705E-1,4.327124953E-1
1.069265017E0,7.387874722E-1,4.846875072E-1,4.115374982E-1
1.071798631E0,7.430499792E-1,4.261125028E-1,3.965499997E-1
1.074332400E0,7.419499755E-1,3.580499887E-1,3.848625124E-1
1.076865921E0,7.441499829E-1,2.846249938E-1,3.763374984E-1
1.079399534E0,7.398874760E-1,2.069374919E-1,3.646500111E-1
1.081933303E0,7.260000110E-1,1.270499974E-1,3.518624902E-1
1.084466921E0,7.196750045E-1,5.266249925E-2,3.305499852E-1
1.087000736E0,7.122499943E-1,-1.237499993E-2,3.060750067E-1
1.089534353E0,7.015249729E-1,-9.748750180E-2,2.763749957E-1
1.092067892E0,6.951999664E-1,-1.825999916E-1,2.348500043E-1
1.094601659E0,6.835125089E-1,-2.666125000E-1,1.964875013E-1
1.097135291E0,6.696249843E-1,-3.518624902E-1,1.592250019E-1
1.099668830E0,6.462500095E-1,-4.347749949E-1,1.337874979E-1
1.102202597E0,6.110500097E-1,-4.976125062E-1,1.539999992E-1
1.104736214E0,5.759875178E-1,-5.295125246E-1,2.050125003E-1
1.107269767E0,5.631999969E-1,-6.082999706E-1,2.294874936E-1
1.109803611E0,5.418875217E-1,-7.892500162E-1,1.805374920E-1
1.112337151E0,5.163124800E-1,-8.903124928E-1,9.116250277E-2
1.114870919E0,5.238749981E-1,-7.870500088E-1,6.049999967E-3
1.117404560E0,5.557749867E-1,-5.476624966E-1,-6.104999781E-2
1.119938099E0,6.175125241E-1,-2.347124964E-1,-1.185249984E-1
1.122471866E0,6.727874875E-1,3.135000169E-2,-1.886499971E-1
1.125005483E0,6.919000149E-1,2.914999984E-2,-2.503874898E-1
1.127539250E0,6.770499945E-1,-2.081750035E-1,-3.078624904E-1
1.130072791E0,6.568375230E-1,-4.507249892E-1,-3.345375061E-1
1.132606404E0,6.408874989E-1,-5.433999896E-1,-3.345375061E-1
1.135140174E0,6.217749715E-1,-4.976125062E-1,-3.185875118E-1
1.137673671E0,5.961999893E-1,-4.113999903E-1,-3.100624979E-1
1.140207515E0,5.631999969E-1,-3.539249897E-1,-3.185875118E-1
1.142741056E0,5.376250148E-1,-3.561249971E-1,-3.430624902E-1
1.145274671E0,5.291000009E-1,-3.730374873E-1,-3.855499923E-1
1.147808423E0,5.259374976E-1,-3.678124845E-1,-4.430249929E-1
1.150341964E0,5.099874735E-1,-3.390749991E-1,-5.154874921E-1
1.152875577E0,4.801499844E-1,-3.326124847E-1,-5.909749866E-1
1.155409346E0,4.376625121E-1,-3.316499889E-1,-6.590374708E-1
1.157942897E0,3.865124881E-1,-3.209249973E-1,-7.165125012E-1
1.160476510E0,3.418250084E-1,-3.070375025E-1,-7.654625177E-1
1.163010279E0,2.982375026E-1,-2.986499965E-1,-8.017625213E-1
1.165543897E0,2.620750070E-1,-3.092375100E-1,-8.229374886E-1
1.168077664E0,2.343000025E-1,-3.485625088E-1,-8.399875164E-1
1.170611281E0,2.162874937E-1,-3.645125031E-1,-8.559374809E-1
1.173144820E0,1.918125004E-1,-3.602499962E-1,-8.698250055E-1
1.175678587E0,1.471250057E-1,-3.443000019E-1,-8.868749738E-1
1.178212186E0,9.171249717E-2,-3.316499889E-1,-8.878374696E-1
1.180745724E0,4.386249930E-2,-3.561249971E-1,-8.900374770E-1
1.183279491E0,1.306249946E-2,-4.017750025E-1,-8.953999877E-1
1.185813109E0,5.499999970E-3,-4.358749986E-1,-8.953999877E-1
1.188346637E0,1.086249948E-2,-4.497624934E-1,-8.783500195E-1
1.190880481E0,3.217500076E-2,-4.454999864E-1,-8.485124707E-1
1.193414022E0,5.555000156E-2,-4.412375093E-1,-8.060249686E-1
1.195947789E0,8.112499863E-2,-4.540250003E-1,-7.687624693E-1
1.198481444E0,1.055999994E-1,-4.560874999E-1,-7.474499941E-1
1.201014983E0,1.289750040E-1,-4.454999864E-1,-7.261375189E-1
1.203548750E0,1.534499973E-1,-4.230875075E-1,-6.995999813E-1
1.206082367E0,1.779250056E-1,-4.008125067E-1,-6.558749676E-1
1.208616150E0,1.992374957E-1,-3.880249858E-1,-6.133875251E-1
1.211149690E0,2.237125039E-1,-3.667125106E-1,-5.824499726E-1
1.213683304E0,2.481874973E-1,-3.518624902E-1,-5.568749905E-1
1.216217073E0,2.705999911E-1,-3.262875080E-1,-5.324000120E-1
1.218750622E0,2.939749956E-1,-3.029125035E-1,-5.143874884E-1
1.221284466E0,3.195500076E-1,-2.539624870E-1,-4.888125062E-1
1.223818007E0,3.343999982E-1,-2.241249979E-1,-4.526500106E-1
1.226351622E0,3.449875116E-1,-2.144999951E-1,-4.142875075E-1
1.228885365E0,3.577750027E-1,-1.815000027E-1,-3.812874854E-1
1.231418905E0,3.642374873E-1,-1.379124969E-1,-3.440249860E-1
1.233952518E0,3.748250008E-1,-1.027124971E-1,-3.132250011E-1
1.236486288E0,3.833499849E-1,-7.191249728E-2,-2.961750031E-1
1.239019852E0,3.972375095E-1,-3.575000167E-2,-2.844874859E-1
1.241553465E0,4.035624862E-1,2.612499986E-3,-2.759625018E-1
1.244087235E0,4.109874964E-1,5.156249925E-2,-2.739000022E-1
1.246620852E0,4.174500108E-1,9.735000134E-2,-2.589125037E-1
1.249154387E0,4.195125103E-1,1.430000067E-1,-2.408999950E-1
1.251688154E0,4.206124842E-1,1.813624948E-1,-2.238499969E-1
1.254221771E0,4.195125103E-1,2.143625021E-1,-2.110625058E-1
1.256755538E0,4.195125103E-1,2.271499932E-1,-1.962125003E-1
1.259289175E0,4.152500033E-1,2.356749922E-1,-1.802625060E-1
1.261822713E0,4.131875038E-1,2.356749922E-1,-1.600500047E-1
1.264356481E0,4.067249894E-1,2.197249979E-1,-1.472624987E-1
1.266890098E0,3.961375058E-1,2.037750036E-1,-1.365374923E-1
1.269423636E0,3.779875040E-1,1.759999990E-1,-1.270499974E-1
1.271957404E0,3.557125032E-1,1.463000029E-1,-1.185249984E-1
1.274491021E0,3.364624977E-1,1.058750004E-1,-1.120624989E-1
1.277024788E0,3.205125034E-1,6.957499683E-2,-1.099999994E-1
1.279558391E0,3.056625128E-1,2.598750032E-2,-1.035374999E-1
1.282091929E0,3.003000021E-1,-2.089999989E-2,-9.721250087E-2
1.284625696E0,2.971374989E-1,-4.111250117E-2,-8.648750186E-2
1.287159314E0,2.939749956E-1,-6.448750198E-2,-6.737499684E-2
1.289693067E0,2.908124924E-1,-1.060125008E-1,-5.032499880E-2
1.292226607E0,2.908124924E-1,-1.357125044E-1,-4.716249928E-2
1.294760221E0,2.897124887E-1,-1.442375034E-1,-6.104999781E-2
1.297293990E0,2.769249976E-1,-1.475374997E-1,-7.163749635E-2
1.299827555E0,2.620750070E-1,-1.570249945E-1,-8.126249909E-2
1.302361168E0,2.535499930E-1,-1.612875015E-1,-9.721250087E-2
1.304894937E0,2.470874935E-1,-1.399749964E-1,-1.185249984E-1
1.307428555E0,2.364999950E-1,-1.176999956E-1,-1.280124933E-1
1.309962303E0,2.322375029E-1,-1.102750003E-1,-1.430000067E-1
1.312495843E0,2.428250015E-1,-7.507500052E-2,-1.600500047E-1
1.315029457E0,2.684000134E-1,-4.949999973E-2,-1.748999953E-1
1.317563226E0,3.077250123E-1,-1.237499993E-2,-1.940124929E-1
1.320096843E0,3.386625051E-1,-1.649999991E-3,-2.014375031E-1
1.322630382E0,3.588750064E-1,-1.553750038E-2,-2.099625021E-1
1.325164149E0,3.737249970E-1,-9.074999951E-3,-2.206874937E-1
1.327697766E0,3.865124881E-1,3.574999981E-3,-2.206874937E-1
1.330231309E0,4.003999829E-1,4.674999975E-3,-2.153249979E-1
1.332765153E0,4.195125103E-1,-9.074999951E-3,-2.067999989E-1
1.335298693E0,4.419249892E-1,-1.443750039E-2,-1.940124929E-1
1.337832461E0,4.716250002E-1,-2.089999989E-2,-1.823250055E-1
1.340366078E0,4.875749946E-1,-5.169999972E-2,-1.632124931E-1
1.342899617E0,4.961000085E-1,-8.786249906E-2,-1.504250020E-1
1.345433384E0,5.036625266E-1,-1.155000031E-1,-1.407999992E-1
1.347967001E0,5.174124837E-1,-1.484999955E-1,-1.313125044E-1
1.350500550E0,5.333625078E-1,-1.751749963E-1,-1.205874979E-1
1.353034317E0,5.493124723E-1,-1.922249943E-1,-1.068374962E-1
1.355567934E0,5.685625076E-1,-2.134000063E-1,-9.501250088E-2
1.358101702E0,5.845124722E-1,-2.198625058E-1,-8.978749812E-2
1.360635285E0,6.058250070E-1,-1.996500045E-1,-9.075000137E-2
1.363169052E0,6.227374673E-1,-2.167000026E-1,-8.978749812E-2
1.365702593E0,6.355249882E-1,-2.496999949E-1,-8.868750185E-2
1.368236206E0,6.429499984E-1,-2.463999987E-1,-1.014750004E-1
1.370769966E0,6.440500021E-1,-2.219250053E-1,-1.216875017E-1
1.373303507E0,6.408874989E-1,-2.048749924E-1,-1.344749928E-1
1.375837120E0,6.366249919E-1,-1.762750000E-1,-1.376374960E-1
1.378370889E0,6.291999817E-1,-1.390125006E-1,-1.419000030E-1
1.380904415E0,6.206749678E-1,-1.134374961E-1,-1.419000030E-1
1.383438028E0,6.110500097E-1,-8.249999583E-2,-1.376374960E-1
1.385971797E0,5.961999893E-1,-6.558749825E-2,-1.194875017E-1
1.388505415E0,5.823125243E-1,-4.427500069E-2,-1.003749967E-1
1.391039197E0,5.589374900E-1,-2.722499892E-2,-8.126249909E-2
1.393572738E0,5.291000009E-1,-1.663750038E-2,-5.252499878E-2
1.396106351E0,4.929375052E-1,4.674999975E-3,-2.914999984E-2
1.398640120E0,4.610374868E-1,3.341250122E-2,-9.899999946E-3
1.401173743E0,4.291374981E-1,6.008749828E-2,1.031249948E-2
1.403707281E0,4.003999829E-1,8.978749812E-2,3.052499890E-2
1.406241048E0,3.790875077E-1,1.185249984E-1,4.647500068E-2
1.408774666E0,3.546124995E-1,1.153625026E-1,6.778749824E-2
1.411308433E0,3.238124847E-1,1.025749967E-1,9.226249903E-2
1.413842050E0,3.067624867E-1,1.164624989E-1,1.071124971E-1
1.416375589E0,2.928749919E-1,1.344749928E-1,1.199000031E-1
1.418909356E0,2.789874971E-1,1.483625025E-1,1.358499974E-1
1.421442944E0,2.715624869E-1,1.600500047E-1,1.539999992E-1
1.423976483E0,2.630375028E-1,1.696749926E-1,1.699499935E-1
1.426510250E0,2.578125000E-1,1.813624948E-1,1.836999953E-1
1.429043867E0,2.535499930E-1,2.004749924E-1,1.912624985E-1
1.431577602E0,2.418625057E-1,2.228875011E-1,1.986874938E-1
1.434111142E0,2.364999950E-1,2.494249940E-1,1.964875013E-1
1.436644756E0,2.279749960E-1,2.739000022E-1,1.922249943E-1
1.439178525E0,2.205500007E-1,2.931500077E-1,1.816374958E-1
1.441712122E0,2.131250054E-1,3.091000021E-1,1.603250057E-1
1.444245889E0,2.098249942E-1,3.111625016E-1,1.369500011E-1
1.446779430E0,2.098249942E-1,3.091000021E-1,1.156374961E-1
1.449313043E0,2.077624947E-1,3.005749881E-1,1.060125008E-1
1.451846828E0,2.055625021E-1,2.824249864E-1,1.050499976E-1
1.454380368E0,1.971749961E-1,2.664749920E-1,1.124750003E-1
1.456913981E0,1.886499971E-1,2.527250051E-1,1.347499937E-1
1.459447751E0,1.790249944E-1,2.334749997E-1,1.699499935E-1
1.461981377E0,1.727000028E-1,2.175250053E-1,2.146375030E-1
1.464514915E0,1.651374996E-1,2.089999914E-1,2.613874972E-1
1.467048683E0,1.641750038E-1,2.015749961E-1,3.051125109E-1
1.469582300E0,1.651374996E-1,1.952500045E-1,3.444375098E-1
1.472116077E0,1.641750038E-1,1.941500008E-1,3.742749989E-1
1.474649695E0,1.608749926E-1,1.952500045E-1,3.976500034E-1
1.477183233E0,1.662375033E-1,1.919499934E-1,4.135999978E-1
1.479717000E0,1.715999991E-1,1.876875013E-1,4.232249856E-1
1.482250599E0,1.821874976E-1,1.867250055E-1,4.338124990E-1
1.484784137E0,1.929125041E-1,1.771000028E-1,4.423374832E-1
1.487317905E0,2.088624984E-1,1.600500047E-1,4.445374906E-1
1.489851522E0,2.290749997E-1,1.377750039E-1,4.454999864E-1
1.492385289E0,2.450249940E-1,1.111000031E-1,4.402749836E-1
1.494918907E0,2.684000134E-1,8.236250281E-2,4.306499958E-1
1.497452445E0,2.865499854E-1,3.657500073E-2,4.093374908E-1
1.499986212E0,3.056625128E-1,-9.074999951E-3,3.837625086E-1
1.502519820E0,3.258749843E-1,-5.706249923E-2,3.529624939E-1
1.505053587E0,3.503499925E-1,-1.038125008E-1,3.221625090E-1
1.507587127E0,3.748250008E-1,-1.475374997E-1,2.838000059E-1
1.510120741E0,3.907749951E-1,-1.922249943E-1,2.487374991E-1
1.512654501E0,4.163500071E-1,-2.304500043E-1,2.167000026E-1
1.515188118E0,4.343625009E-1,-2.623499930E-1,1.922249943E-1
1.517721657E0,4.536125064E-1,-2.847625017E-1,1.751749963E-1
1.520255424E0,4.758875072E-1,-3.018124998E-1,1.710499972E-1
1.522788955E0,4.972000122E-1,-3.049750030E-1,1.731124967E-1
1.525322799E0,5.227749944E-1,-3.060750067E-1,1.827374995E-1
1.527856339E0,5.450500250E-1,-2.975499928E-1,1.986874938E-1
1.530389955E0,5.600374937E-1,-2.793999910E-1,2.231625021E-1
1.532923746E0,5.748875141E-1,-2.528625131E-1,2.561624944E-1
1.535457286E0,5.887749791E-1,-2.252250016E-1,2.869625092E-1
1.537990900E0,6.004624963E-1,-1.889249980E-1,3.264249861E-1
1.540524669E0,6.078875065E-1,-1.516624987E-1,3.678124845E-1
1.543058310E0,6.132500172E-1,-1.176999956E-1,4.093374908E-1
1.545592077E0,6.121500134E-1,-8.470000327E-2,4.434374869E-1
1.548125618E0,6.025249958E-1,-5.279999971E-2,4.753375053E-1
1.550659231E0,5.897374749E-1,-2.296249941E-2,5.072374940E-1
1.553192767E0,5.685625076E-1,1.429999992E-2,5.317124724E-1
1.555726611E0,5.440874696E-1,5.266249925E-2,5.583875179E-1
1.558260151E0,5.153499842E-1,8.662500232E-2,5.849249959E-1
1.560793919E0,4.791874886E-1,1.218250021E-1,6.115999818E-1
1.563327517E0,4.536125064E-1,1.505624950E-1,6.413000226E-1
1.565861284E0,4.311999977E-1,1.759999990E-1,6.700375080E-1
1.568394825E0,4.046624899E-1,1.867250055E-1,6.945124865E-1
1.570928438E0,3.844499886E-1,1.984124929E-1,7.211874723E-1
1.573461955E0,3.631374836E-1,2.080374956E-1,7.477250099E-1
1.575995799E0,3.429250121E-1,2.164250016E-1,7.764624953E-1
1.578529339E0,3.205125034E-1,2.197249979E-1,8.020374775E-1
1.581063107E0,3.067624867E-1,2.197249979E-1,8.287125230E-1
1.583596729E0,2.993375063E-1,2.111999989E-1,8.509874940E-1
1.586130496E0,3.003000021E-1,2.069374919E-1,8.659750223E-1
1.588664037E0,2.950749993E-1,1.995124966E-1,8.711999655E-1
1.591197650E0,2.908124924E-1,1.962125003E-1,8.637750149E-1
1.593731452E0,2.811875045E-1,1.876875013E-1,8.456249833E-1
1.596265070E0,2.694999874E-1,1.887875050E-1,8.170250058E-1
1.598798608E0,2.556124926E-1,2.069374919E-1,7.797625065E-1
1.601332375E0,2.513499856E-1,2.228875011E-1,7.414000034E-1
1.603865931E0,2.503874898E-1,2.292124927E-1,7.030375004E-1
1.606399544E0,2.407625020E-1,2.217874974E-1,6.637125015E-1
1.608933313E0,2.322375029E-1,2.089999914E-1,6.360750198E-1
1.611466931E0,2.194499969E-1,1.962125003E-1,6.104999781E-1
1.614000674E0,2.140875012E-1,2.026749998E-1,5.923500061E-1
1.616534215E0,2.120250016E-1,2.345750034E-1,5.828624964E-1
1.619068059E0,1.588124931E-1,3.282124996E-1,5.647125244E-1
1.621601599E0,1.236125007E-1,4.101625085E-1,5.083374977E-1
1.624135205E0,1.385999918E-1,4.123624861E-1,4.167625010E-1
1.626668743E0,1.715999991E-1,4.112625122E-1,3.455374837E-1
1.629202510E0,2.003374994E-1,4.090625048E-1,2.934249938E-1
1.631736128E0,2.151875049E-1,4.016374946E-1,2.444749922E-1
1.634269895E0,2.088624984E-1,4.090625048E-1,2.114749998E-1
1.636803512E0,1.810874939E-1,4.494875073E-1,2.167000026E-1
1.639337051E0,1.471250057E-1,5.165874958E-1,2.815999985E-1
1.641870818E0,1.247124970E-1,4.622749984E-1,3.179000020E-1
1.644404425E0,1.278750002E-1,3.165250123E-1,2.773374915E-1
1.646937964E0,1.385999918E-1,1.845249981E-1,1.859000027E-1
1.649471808E0,1.439625025E-1,1.111000031E-1,9.006249905E-2
1.652005348E0,1.428624988E-1,7.919999957E-2,1.567500085E-2
1.654539121E0,1.363999993E-1,5.678749830E-2,-2.914999984E-2
1.657072661E0,1.311749965E-1,5.582499877E-2,-4.936249927E-2
1.659606275E0,1.278750002E-1,9.404999763E-2,-4.509999976E-2
1.662140044E0,1.247124970E-1,1.440999955E-1,-2.584999986E-2
1.664673676E0,1.236125007E-1,1.707749963E-1,1.237499993E-2
1.667207443E0,1.300749928E-1,1.654125005E-1,5.609999970E-2
1.669740984E0,1.363999993E-1,1.568875015E-1,1.060125008E-1
1.672274597E0,1.375000030E-1,1.483625025E-1,1.390125006E-1
1.674808385E0,1.343374997E-1,1.440999955E-1,1.645874977E-1
1.677341926E0,1.215500012E-1,1.344749928E-1,1.762750000E-1
1.679875770E0,1.087625027E-1,1.132999957E-1,1.805374920E-1
1.682409311E0,9.817499667E-2,8.662500232E-2,1.827374995E-1
1.684942935E0,8.648750186E-2,8.552499861E-2,1.847999990E-1
1.687476473E0,7.892499864E-2,1.196250021E-1,1.890625060E-1
1.690010241E0,7.259999961E-2,1.674750000E-1,1.890625060E-1
1.692543858E0,6.943749636E-2,2.089999914E-1,1.996500045E-1
1.695077592E0,6.833750010E-2,2.388374954E-1,2.124374956E-1
1.697611255E0,6.943749636E-2,2.527250051E-1,2.305874974E-1
1.700144932E0,6.833750010E-2,2.494249940E-1,2.487374991E-1
1.702696362E0,7.053750008E-2,2.325125039E-1,2.667500079E-1
1.705212133E0,7.150000334E-2,2.080374956E-1,2.763749957E-1
1.707745669E0,7.892499864E-2,1.887875050E-1,2.869625092E-1
1.710279515E0,8.002500236E-2,1.739374995E-1,2.901250124E-1
1.712813054E0,8.318749815E-2,1.526249945E-1,2.901250124E-1
1.715346823E0,8.964999765E-2,1.420374960E-1,2.849000096E-1
1.717880439E0,9.501250088E-2,1.387374997E-1,2.795374990E-1
1.720413979E0,1.024374962E-1,1.196250021E-1,2.732124925E-1
1.722947751E0,1.109625027E-1,9.308750182E-2,2.635875046E-1
1.725481369E0,1.183874980E-1,7.287500054E-2,2.518999875E-1
1.728014907E0,1.278750002E-1,4.303750023E-2,2.444749922E-1
1.730548674E0,1.321374923E-1,1.003750041E-2,2.402125001E-1
1.733082291E0,1.417624950E-1,-2.186249942E-2,2.411749959E-1
1.735616058E0,1.449249983E-1,-4.853750020E-2,2.465374917E-1
1.738149675E0,1.428624988E-1,-6.764999777E-2,2.604250014E-1
1.740683214E0,1.385999918E-1,-6.875000149E-2,2.752749920E-1
1.743216977E0,1.311749965E-1,-6.875000149E-2,2.954874933E-1
1.745750594E0,1.289750040E-1,-5.596249923E-2,3.136374950E-1
1.748284362E0,1.269125044E-1,-3.148749843E-2,3.327499926E-1
1.750817902E0,1.236125007E-1,-4.812499974E-3,3.497999907E-1
1.753351516E0,1.215500012E-1,3.767500073E-2,3.720749915E-1
1.755885285E0,1.141249985E-1,7.809999585E-2,3.859624863E-1
1.758418825E0,1.109625027E-1,1.132999957E-1,3.880249858E-1
1.760952439E0,1.067000031E-1,1.579875052E-1,3.870624900E-1
1.763486174E0,1.002374962E-1,1.876875013E-1,3.795000017E-1
1.766019791E0,1.033999994E-1,2.111999989E-1,3.700124919E-1
1.768553558E0,1.109625027E-1,2.399374992E-1,3.614875078E-1
1.771087099E0,1.119249985E-1,2.601499856E-1,3.583250046E-1
1.773620712E0,1.152250022E-1,2.803624868E-1,3.583250046E-1
1.776154482E0,1.183874980E-1,2.866874933E-1,3.561249971E-1
1.778688022E0,1.226499975E-1,2.877874970E-1,3.550249934E-1
1.781221635E0,1.269125044E-1,2.983750105E-1,3.561249971E-1
1.783755443E0,1.247124970E-1,3.079999983E-1,3.529624939E-1
1.786289060E0,1.258125007E-1,3.196874857E-1,3.444375098E-1
1.788822827E0,1.258125007E-1,3.261500001E-1,3.412750065E-1
1.791356368E0,1.258125007E-1,3.388000131E-1,3.359124959E-1
1.793889996E0,1.258125007E-1,3.634124994E-1,3.284874856E-1
1.796423765E0,1.258125007E-1,3.750999868E-1,3.156999946E-1
1.798957383E0,1.269125044E-1,3.814249933E-1,3.082749844E-1
1.801490921E0,1.269125044E-1,3.973749876E-1,3.008500040E-1
1.804024668E0,1.258125007E-1,4.112625122E-1,2.923249900E-1
1.806558286E0,1.258125007E-1,4.047999978E-1,2.858625054E-1
1.809091824E0,1.236125007E-1,4.070000052E-1,2.784374952E-1
1.811625592E0,1.194875017E-1,4.090625048E-1,2.710124850E-1
1.814159229E0,1.141249985E-1,3.984749913E-1,2.613874972E-1
1.816692996E0,1.119249985E-1,3.942124844E-1,2.550624907E-1
1.819226614E0,1.098624989E-1,3.845874965E-1,2.508000135E-1
1.821760152E0,1.044999957E-1,3.665750027E-1,2.487374991E-1
1.824293894E0,9.281250089E-2,3.335750103E-1,2.487374991E-1
1.826827512E0,8.222500235E-2,2.888875008E-1,2.465374917E-1
1.829361279E0,6.407500058E-2,2.239875048E-1,2.422749996E-1
1.831894819E0,5.128749833E-2,1.463000029E-1,2.359499931E-1
1.834428405E0,3.643750027E-2,9.624999762E-2,2.167000026E-1
1.836962174E0,3.849999979E-2,7.713750005E-2,1.944250017E-1
1.839495715E0,5.238749832E-2,7.603749633E-2,1.710499972E-1
1.842029559E0,6.201250106E-2,7.177499682E-2,1.454750001E-1
1.844563089E0,5.871250108E-2,5.678749830E-2,1.252624989E-1
1.847096705E0,4.179999977E-2,3.767500073E-2,1.102750003E-1
1.849630472E0,1.196249947E-2,2.282499894E-2,1.060125008E-1
1.852164012E0,-1.567500085E-2,2.282499894E-2,1.050499976E-1
1.854697636E0,-3.382499889E-2,5.046249926E-2,1.039500013E-1
1.857231405E0,-4.441250116E-2,9.088750184E-2,1.007874981E-1
1.859765022E0,-5.293750018E-2,1.281500012E-1,1.039500013E-1
1.862298561E0,-6.682500243E-2,1.494625062E-1,1.028499976E-1
1.864832347E0,-8.277499676E-2,1.632124931E-1,1.050499976E-1
1.867365964E0,-9.872499853E-2,1.696749926E-1,9.336250275E-2
1.869899503E0,-1.115124971E-1,1.643124968E-1,7.301250100E-2
1.872433347E0,-1.200374961E-1,1.611499935E-1,5.183750018E-2
1.874966868E0,-1.243000031E-1,1.526249945E-1,2.736249939E-2
1.877500636E0,-1.263625026E-1,1.463000029E-1,-4.124999978E-4
1.880034253E0,-1.263625026E-1,1.270499974E-1,-3.011249937E-2
1.882567792E0,-1.200374961E-1,9.941250086E-2,-6.104999781E-2
1.885101549E0,-1.157749966E-1,7.603749633E-2,-9.075000137E-2
1.887635166E0,-1.072499976E-1,4.619999975E-2,-1.185249984E-1
1.890168933E0,-9.762500226E-2,1.113750041E-2,-1.439625025E-1
1.892702474E0,-8.071249723E-2,-2.186249942E-2,-1.706375033E-1
1.895236092E0,-6.998749822E-2,-5.596249923E-2,-1.929125041E-1
1.897769861E0,-5.829999968E-2,-9.006249905E-2,-2.110625058E-1
1.900303479E0,-4.661250114E-2,-1.293874979E-1,-2.238499969E-1
1.902837246E0,-3.808749840E-2,-1.612875015E-1,-2.344374955E-1
1.905370796E0,-2.956249937E-2,-1.996500045E-1,-2.312749922E-1
1.907904409E0,-2.956249937E-2,-2.443374991E-1,-2.184875011E-1
1.910438178E0,-2.639999986E-2,-2.825624943E-1,-2.004749924E-1
1.912971719E0,-2.639999986E-2,-3.070375025E-1,-1.737999916E-1
1.915505318E0,-2.956249937E-2,-3.262875080E-1,-1.419000030E-1
1.918039087E0,-3.588749841E-2,-3.400374949E-1,-1.088999957E-1
1.920572628E0,-4.441250116E-2,-3.475999832E-1,-7.590000331E-2
1.923106472E0,-4.867500067E-2,-3.602499962E-1,-4.716249928E-2
1.925640026E0,-5.513750017E-2,-3.772999942E-1,-1.732499897E-2
1.928173642E0,-6.146249920E-2,-3.965499997E-1,4.949999973E-3
1.930707409E0,-6.682500243E-2,-4.028750062E-1,2.626249939E-2
1.933240949E0,-6.792499870E-2,-4.071374834E-1,4.111250117E-2
1.935774563E0,-6.888750196E-2,-4.177249968E-1,5.609999970E-2
1.938308332E0,-6.888750196E-2,-4.210250080E-1,7.631249726E-2
1.940841950E0,-6.682500243E-2,-4.262500107E-1,9.006249905E-2
1.943375488E0,-6.792499870E-2,-4.273499846E-1,9.858749807E-2
1.945909245E0,-6.998749822E-2,-4.241875112E-1,1.050499976E-1
1.948442863E0,-6.998749822E-2,-4.252874851E-1,1.135749966E-1
1.950976401E0,-7.108750194E-2,-4.252874851E-1,1.145374998E-1
1.953510245E0,-6.888750196E-2,-4.284499884E-1,1.082125008E-1
1.956043758E0,-6.998749822E-2,-4.347749949E-1,9.748750180E-2
1.958577525E0,-6.792499870E-2,-4.464625120E-1,8.689999580E-2
1.961111142E0,-6.462500244E-2,-4.646124840E-1,7.837499678E-2
1.963644681E0,-6.146249920E-2,-4.816625118E-1,7.411249727E-2
1.966178467E0,-5.829999968E-2,-4.944500029E-1,7.521250099E-2
1.968712084E0,-5.939999968E-2,-5.039374828E-1,7.631249726E-2
1.971245852E0,-5.623750016E-2,-5.007749796E-1,8.373750001E-2
1.973779392E0,-6.036249921E-2,-4.954124987E-1,8.689999580E-2
1.976313011E0,-6.366249919E-2,-4.785000086E-1,9.006249905E-2
1.978846780E0,-7.535000145E-2,-4.549874961E-1,9.748750180E-2
1.981380397E0,-7.961250097E-2,-4.338124990E-1,9.858749807E-2
1.983914164E0,-8.483749628E-2,-4.167625010E-1,1.007874981E-1
1.986447714E0,-9.019999951E-2,-3.986124992E-1,1.060125008E-1
1.988981327E0,-9.762500226E-2,-3.847250044E-1,1.093124971E-1
1.991515096E0,-1.040875018E-1,-3.645125031E-1,1.135749966E-1
1.994048637E0,-1.115124971E-1,-3.465000093E-1,1.167374998E-1
1.996582274E0,-1.178374961E-1,-3.379749954E-1,1.209999993E-1
1.999116044E0,-1.274625063E-1,-3.379749954E-1,1.295250058E-1
2.001649661E0,-1.328250021E-1,-3.316499889E-1,1.347499937E-1
2.004183199E0,-1.348875016E-1,-3.220250010E-1,1.390125006E-1
2.006716982E0,-1.370874941E-1,-3.081375062E-1,1.443749964E-1
2.009250599E0,-1.391499937E-1,-2.943874896E-1,1.507000029E-1
2.011784366E0,-1.413500011E-1,-2.773374915E-1,1.571625024E-1
2.014317984E0,-1.391499937E-1,-2.539624870E-1,1.634874940E-1
2.016851502E0,-1.380500048E-1,-2.261874974E-1,1.699499935E-1
2.019385269E0,-1.423124969E-1,-1.931875050E-1,1.731124967E-1
2.021918887E0,-1.445125043E-1,-1.570249945E-1,1.773750037E-1
2.024452425E0,-1.487749964E-1,-1.271875054E-1,1.731124967E-1
2.026986192E0,-1.572999954E-1,-9.748750180E-2,1.656875014E-1
2.029519810E0,-1.615625024E-1,-6.984999776E-2,1.625249982E-1
2.032053577E0,-1.625249982E-1,-4.207500070E-2,1.592250019E-1
2.034587195E0,-1.647250056E-1,-1.869999990E-2,1.560624987E-1
2.037120743E0,-1.678874940E-1,1.209999993E-2,1.528999954E-1
2.039654510E0,-1.689874977E-1,4.193750024E-2,1.528999954E-1
2.042188128E0,-1.700875014E-1,7.177499682E-2,1.507000029E-1
2.044721666E0,-1.743499935E-1,1.079374999E-1,1.571625024E-1
2.047255438E0,-1.775124967E-1,1.303499937E-1,1.625249982E-1
2.049789056E0,-1.806750000E-1,1.387374997E-1,1.656875014E-1
2.052322823E0,-1.817750037E-1,1.451999992E-1,1.751749963E-1
2.054856363E0,-1.860374957E-1,1.440999955E-1,1.794375032E-1
2.057389977E0,-1.806750000E-1,1.335124969E-1,1.762750000E-1
2.059923746E0,-1.764124930E-1,1.227874979E-1,1.816374958E-1
2.062457286E0,-1.732500046E-1,1.111000031E-1,1.836999953E-1
2.064991131E0,-1.710499972E-1,9.308750182E-2,1.762750000E-1
2.067524680E0,-1.753125042E-1,6.861250103E-2,1.710499972E-1
2.070058296E0,-1.775124967E-1,4.619999975E-2,1.634874940E-1
2.072592063E0,-1.775124967E-1,3.341250122E-2,1.549624950E-1
2.075125603E0,-1.775124967E-1,1.209999993E-2,1.412124932E-1
2.077659232E0,-1.721500009E-1,-1.333750039E-2,1.273249984E-1
2.080193001E0,-1.700875014E-1,-4.207500070E-2,1.156374961E-1
2.082726618E0,-1.658249944E-1,-6.228749827E-2,1.102750003E-1
2.085260157E0,-1.667875051E-1,-9.212499857E-2,1.071124971E-1
2.087793953E0,-1.647250056E-1,-1.230624989E-1,1.082125008E-1
2.090327570E0,-1.604624987E-1,-1.390125006E-1,1.124750003E-1
2.092861109E0,-1.593624949E-1,-1.464374959E-1,1.113749966E-1
2.095394953E0,-1.582625061E-1,-1.453374922E-1,1.071124971E-1
2.097928512E0,-1.519374996E-1,-1.379124969E-1,1.060125008E-1
2.100462280E0,-1.498750001E-1,-1.271875054E-1,9.968750179E-2
2.102995897E0,-1.445125043E-1,-1.197625026E-1,9.226249903E-2
2.105529436E0,-1.423124969E-1,-1.102750003E-1,8.799999952E-2
2.108063188E0,-1.423124969E-1,-1.027124971E-1,8.483749628E-2
2.110596805E0,-1.423124969E-1,-9.844999760E-2,8.483749628E-2
2.113130344E0,-1.434125006E-1,-9.322500229E-2,8.799999952E-2
2.115664188E0,-1.465750039E-1,-8.786249906E-2,9.116250277E-2
2.118197714E0,-1.498750001E-1,-8.470000327E-2,9.116250277E-2
2.120731481E0,-1.476749927E-1,-8.359999955E-2,8.910000324E-2
2.123265099E0,-1.487749964E-1,-8.359999955E-2,8.373750001E-2
2.125798866E0,-1.434125006E-1,-7.933750004E-2,8.057499677E-2
2.128332416E0,-1.434125006E-1,-7.727500051E-2,6.778749824E-2
2.130866029E0,-1.434125006E-1,-7.081250101E-2,4.853750020E-2
2.133399798E0,-1.465750039E-1,-6.655000150E-2,3.258749843E-2
2.135933416E0,-1.508374959E-1,-5.912499875E-2,1.347499993E-2
2.138466964E0,-1.530375034E-1,-6.338749826E-2,-8.937500417E-3
2.141000731E0,-1.541374922E-1,-7.617499679E-2,-2.158750035E-2
2.143534272E0,-1.541374922E-1,-7.933750004E-2,-3.121249937E-2
2.146068116E0,-1.551000029E-1,-8.153750002E-2,-3.657500073E-2
2.148601670E0,-1.530375034E-1,-7.617499679E-2,-4.083750024E-2
2.151135286E0,-1.530375034E-1,-6.558749825E-2,-4.289999977E-2
2.153669053E0,-1.561999917E-1,-6.022499874E-2,-4.509999976E-2
2.156202593E0,-1.615625024E-1,-5.169999972E-2,-4.716249928E-2
2.158736203E0,-1.582625061E-1,-3.684999794E-2,-4.606249928E-2
2.161269972E0,-1.551000029E-1,-1.869999990E-2,-4.289999977E-2
2.163803590E0,-1.530375034E-1,-1.127499994E-2,-4.083750024E-2
2.166337128E0,-1.561999917E-1,-5.499999970E-4,-3.341250122E-2
2.168870875E0,-1.582625061E-1,1.746249944E-2,-2.488750033E-2
2.171404493E0,-1.582625061E-1,3.561250120E-2,-1.306249946E-2
2.173938260E0,-1.604624987E-1,3.877500072E-2,2.887499984E-3
2.176471877E0,-1.615625024E-1,3.877500072E-2,2.199999988E-2
2.179005440E0,-1.636250019E-1,4.619999975E-2,3.368749842E-2
2.181539207E0,-1.678874940E-1,7.067500055E-2,4.427500069E-2
2.184072824E0,-1.636250019E-1,1.047749966E-1,4.853750020E-2
2.186606363E0,-1.625249982E-1,1.420374960E-1,4.015000165E-2
2.189140116E0,-1.636250019E-1,1.835625023E-1,2.516249940E-2
2.191673733E0,-1.604624987E-1,2.206874937E-1,8.112499490E-3
2.194207501E0,-1.604624987E-1,2.527250051E-1,-1.416249946E-2
2.196741041E0,-1.582625061E-1,2.846249938E-1,-3.863750026E-2
2.199274645E0,-1.593624949E-1,3.102000058E-1,-5.884999782E-2
2.201808414E0,-1.561999917E-1,3.271124959E-1,-7.906249911E-2
2.204342031E0,-1.593624949E-1,3.452624977E-1,-9.831249714E-2
2.206875798E0,-1.572999954E-1,3.675374985E-1,-1.163249984E-1
2.209409344E0,-1.541374922E-1,3.729000092E-1,-1.248499975E-1
2.211942957E0,-1.487749964E-1,3.708375096E-1,-1.270499974E-1
2.214476726E0,-1.498750001E-1,3.803249896E-1,-1.259499937E-1
2.217010267E0,-1.519374996E-1,3.953124881E-1,-1.194875017E-1
2.219543885E0,-1.519374996E-1,3.984749913E-1,-1.142624989E-1
2.222077655E0,-1.519374996E-1,3.984749913E-1,-1.216875017E-1
2.224611272E0,-1.530375034E-1,3.910500109E-1,-1.280124933E-1
2.227145039E0,-1.582625061E-1,3.793624938E-1,-1.387374997E-1
2.229678575E0,-1.658249944E-1,3.825249970E-1,-1.450625062E-1
2.232212188E0,-1.700875014E-1,3.654749990E-1,-1.472624987E-1
2.234745957E0,-1.775124967E-1,3.409999907E-1,-1.419000030E-1
2.237279575E0,-1.849374920E-1,3.324750066E-1,-1.387374997E-1
2.239813118E0,-1.912624985E-1,3.346749842E-1,-1.450625062E-1
2.242346885E0,-1.945624948E-1,3.228499889E-1,-1.535875052E-1
2.244880503E0,-2.008875012E-1,3.048374951E-1,-1.557874978E-1
2.247414041E0,-2.019875050E-1,2.909500003E-1,-1.546874940E-1
2.249947784E0,-2.030874938E-1,2.686749995E-1,-1.567499936E-1
2.252481402E0,-2.083124965E-1,2.334749997E-1,-1.610125005E-1
2.255015169E0,-2.125750035E-1,2.015749961E-1,-1.621125042E-1
2.257548787E0,-2.125750035E-1,1.685750037E-1,-1.663749963E-1
2.260082286E0,-2.105125040E-1,1.409374923E-1,-1.727000028E-1
2.262616053E0,-2.114749998E-1,1.068374962E-1,-1.727000028E-1
2.265149671E0,-2.072124928E-1,7.809999585E-2,-1.759999990E-1
2.267683209E0,-2.019875050E-1,5.156249925E-2,-1.834249943E-1
2.270216971E0,-1.955250055E-1,1.319999993E-2,-1.812250018E-1
2.272750589E0,-2.030874938E-1,-5.169999972E-2,-1.865874976E-1
2.275284356E0,-2.094125003E-1,-1.069749966E-1,-2.047374994E-1
2.277817973E0,-2.114749998E-1,-1.314499974E-1,-2.184875011E-1
2.280351527E0,-2.072124928E-1,-1.325500011E-1,-2.344374955E-1
2.282885294E0,-1.966249943E-1,-1.399749964E-1,-2.461249977E-1
2.285418911E0,-1.827374995E-1,-1.495999992E-1,-2.536875010E-1
2.287952679E0,-1.700875014E-1,-1.729750037E-1,-2.503874898E-1
2.290486214E0,-1.561999917E-1,-1.922249943E-1,-2.451625019E-1
2.293019828E0,-1.541374922E-1,-1.922249943E-1,-2.334749997E-1
2.295553597E0,-1.582625061E-1,-1.720124930E-1,-2.153249979E-1
2.298087214E0,-1.582625061E-1,-1.495999992E-1,-1.908500046E-1
2.300620719E0,-1.625249982E-1,-1.379124969E-1,-1.567499936E-1
2.303154486E0,-1.658249944E-1,-1.495999992E-1,-1.291124970E-1
2.305688103E0,-1.721500009E-1,-1.495999992E-1,-1.111000031E-1
2.308221870E0,-1.743499935E-1,-1.060125008E-1,-1.003749967E-1
2.310755382E0,-1.806750000E-1,-7.301250100E-2,-9.075000137E-2
2.313288995E0,-1.827374995E-1,-5.706249923E-2,-8.442500234E-2
2.315822765E0,-1.838375032E-1,-3.891250119E-2,-8.332499862E-2
2.318356382E0,-1.860374957E-1,-1.127499994E-2,-8.016250283E-2
2.320889906E0,-1.880999953E-1,1.966249943E-2,-7.590000331E-2
2.323423674E0,-1.860374957E-1,5.678749830E-2,-7.699999958E-2
2.325957291E0,-1.870000064E-1,9.515000135E-2,-6.957499683E-2
2.328491058E0,-1.955250055E-1,1.099999994E-1,-6.847500056E-2
2.331024613E0,-1.988250017E-1,1.099999994E-1,-6.737499684E-2
2.333558226E0,-2.030874938E-1,1.175625026E-1,-5.884999782E-2
2.336091995E0,-2.051499933E-1,1.175625026E-1,-5.362499878E-2
2.338625613E0,-2.072124928E-1,1.111000031E-1,-4.606249928E-2
2.341159151E0,-2.040500045E-1,1.058750004E-1,-4.179999977E-2
2.343692918E0,-2.040500045E-1,1.058750004E-1,-3.657500073E-2
2.346226536E0,-2.062499970E-1,1.121999994E-1,-2.694999985E-2
2.348760303E0,-2.062499970E-1,1.164624989E-1,-1.636249945E-2
2.351293830E0,-2.094125003E-1,1.185249984E-1,-2.474999987E-3
2.353827443E0,-2.168374956E-1,1.196250021E-1,1.553750038E-2
2.356361212E0,-2.232999951E-1,1.099999994E-1,2.832499892E-2
2.358894830E0,-2.264624983E-1,1.005124971E-1,4.757500067E-2
2.361428349E0,-2.296250015E-1,9.404999763E-2,6.352499872E-2
2.363962116E0,-2.318249941E-1,9.404999763E-2,7.411249727E-2
2.366495734E0,-2.318249941E-1,1.090374961E-1,8.799999952E-2
2.369029501E0,-2.318249941E-1,1.260875016E-1,1.017500013E-1
2.371563020E0,-2.338874936E-1,1.355749965E-1,1.135749966E-1
2.374096634E0,-2.338874936E-1,1.472624987E-1,1.273249984E-1
2.376630403E0,-2.318249941E-1,1.590874940E-1,1.432749927E-1
2.379164020E0,-2.327875048E-1,1.568875015E-1,1.592250019E-1
2.381697550E0,-2.327875048E-1,1.451999992E-1,1.794375032E-1
2.384231317E0,-2.327875048E-1,1.398375034E-1,2.029500008E-1
2.386764935E0,-2.359499931E-1,1.366750002E-1,2.241249979E-1
2.389298473E0,-2.392500043E-1,1.281500012E-1,2.359499931E-1
2.391832308E0,-2.359499931E-1,1.238875017E-1,2.402125001E-1
2.394365849E0,-2.307250053E-1,1.196250021E-1,2.433750033E-1
2.396899616E0,-2.222000062E-1,1.185249984E-1,2.402125001E-1
2.399433233E0,-2.168374956E-1,1.111000031E-1,2.337500006E-1
2.401966785E0,-2.125750035E-1,9.735000134E-2,2.263250053E-1
2.404500552E0,-2.094125003E-1,8.662500232E-2,2.220624983E-1
2.407034169E0,-2.030874938E-1,7.493750006E-2,2.209624946E-1
2.409567937E0,-1.934625059E-1,6.008749828E-2,2.294874936E-1
2.412101554E0,-1.817750037E-1,4.509999976E-2,2.326499969E-1
2.414635092E0,-1.689874977E-1,3.024999984E-2,2.444749922E-1
2.417168860E0,-1.593624949E-1,1.539999992E-2,2.656500041E-1
2.419702400E0,-1.530375034E-1,1.113750041E-2,2.965874970E-1
2.422236254E0,-1.465750039E-1,1.319999993E-2,3.284874856E-1
2.424769795E0,-1.434125006E-1,1.319999993E-2,3.572250009E-1
2.427303410E0,-1.380500048E-1,3.341250122E-2,3.848625124E-1
2.429837177E0,-1.296624988E-1,6.861250103E-2,4.050749838E-1
2.432370723E0,-1.296624988E-1,9.624999762E-2,4.189625084E-1
2.434904336E0,-1.263625026E-1,1.292500049E-1,4.284499884E-1
2.437438105E0,-1.200374961E-1,1.643124968E-1,4.412375093E-1
2.439971723E0,-1.220999956E-1,1.941500008E-1,4.571875036E-1
2.442505490E0,-1.211374998E-1,2.239875048E-1,4.732750058E-1
2.445039031E0,-1.200374961E-1,2.622124851E-1,4.987125099E-1
2.447572644E0,-1.243000031E-1,2.983750105E-1,5.328124762E-1
2.450106413E0,-1.285624951E-1,3.304125071E-1,5.732374787E-1
2.452640031E0,-1.317249984E-1,3.643749952E-1,6.147624850E-1
2.455173569E0,-1.348875016E-1,4.005374908E-1,6.520249844E-1
2.457707336E0,-1.402499974E-1,4.431625009E-1,6.765000224E-1
2.460240954E0,-1.445125043E-1,4.824874997E-1,6.902499795E-1
2.462774740E0,-1.498750001E-1,5.165874958E-1,6.881874800E-1
2.465308280E0,-1.561999917E-1,5.293750167E-1,6.754000187E-1
2.467841894E0,-1.519374996E-1,5.473874807E-1,6.498249769E-1
2.470375663E0,-1.380500048E-1,5.825874805E-1,6.210874915E-1
2.472909275E0,-1.254000068E-1,5.814874768E-1,5.988125205E-1
2.475442814E0,-1.168750003E-1,5.527499914E-1,5.774999857E-1
2.477976581E0,-1.157749966E-1,5.271750093E-1,5.541250110E-1
2.480510198E0,-1.115124971E-1,5.165874958E-1,5.285499692E-1
2.483044005E0,-1.040875018E-1,4.932124913E-1,5.051749945E-1
2.485577545E0,-9.982500225E-2,4.984374940E-1,4.838624895E-1
2.488111159E0,-8.057499677E-2,5.017374754E-1,4.732750058E-1
2.490644928E0,-6.462500244E-2,4.697000086E-1,4.870249927E-1
2.493178506E0,-5.829999968E-2,4.123624861E-1,5.126000047E-1
2.495712045E0,-6.888750196E-2,3.634124994E-1,5.296499729E-1
2.498245812E0,-9.336250275E-2,3.537875116E-1,5.285499692E-1
2.500779429E0,-1.104125008E-1,3.814249933E-1,5.137000084E-1
2.503313178E0,-1.146750003E-1,4.357374907E-1,4.806999862E-1
2.505846718E0,-1.009249985E-1,4.655750096E-1,4.465999901E-1
2.508380331E0,-8.593750000E-2,4.676375091E-1,4.263874888E-1
2.510914101E0,-8.167500049E-2,4.622749984E-1,4.252874851E-1
2.513447660E0,-8.910000324E-2,4.793249965E-1,4.221250117E-1
2.515981274E0,-9.762500226E-2,5.026999712E-1,4.124999940E-1
2.518515043E0,-1.061500013E-1,5.165874958E-1,4.082374871E-1
2.521048660E0,-1.135749966E-1,5.368000269E-1,4.093374908E-1
2.523582233E0,-1.157749966E-1,5.378999710E-1,4.061749876E-1
2.526116000E0,-1.168750003E-1,5.293750167E-1,3.965499997E-1
2.528649617E0,-1.126125008E-1,5.389999747E-1,3.742749989E-1
2.531183384E0,-1.018875018E-1,5.623750091E-1,3.444375098E-1
2.533717036E0,-9.666249901E-2,5.219500065E-1,3.262875080E-1
2.536250574E0,-9.666249901E-2,4.750624895E-1,3.040125072E-1
2.538784342E0,-9.556250274E-2,4.707999825E-1,2.710124850E-1
2.541317959E0,-9.446249902E-2,4.697000086E-1,2.402125001E-1
2.543851502E0,-9.019999951E-2,4.644750059E-1,2.209624946E-1
2.546385270E0,-8.167500049E-2,4.559499919E-1,2.177999914E-1
2.548918887E0,-7.851249725E-2,4.368374944E-1,2.231625021E-1
2.551452654E0,-7.535000145E-2,4.090625048E-1,2.326499969E-1
2.553986171E0,-7.424999774E-2,3.836250007E-1,2.433750033E-1
2.556520015E0,-7.535000145E-2,3.643749952E-1,2.496999949E-1
2.559053555E0,-7.644999772E-2,3.452624977E-1,2.486000061E-1
2.561587171E0,-7.961250097E-2,3.335750103E-1,2.359499931E-1
2.564120928E0,-8.387500048E-2,3.398999870E-1,2.146375030E-1
2.566654468E0,-8.057499677E-2,3.420999944E-1,1.964875013E-1
2.569188082E0,-7.108750194E-2,2.920500040E-1,1.870000064E-1
2.571721851E0,-6.462500244E-2,2.451625019E-1,1.816374958E-1
2.574255392E0,-6.146249920E-2,2.334749997E-1,1.827374995E-1
2.576789236E0,-6.256250292E-2,2.197249979E-1,1.944250017E-1
2.579322776E0,-6.462500244E-2,2.080374956E-1,2.146375030E-1
2.581856392E0,-6.462500244E-2,1.984124929E-1,2.348500043E-1
2.584389930E0,-6.256250292E-2,1.696749926E-1,2.528625131E-1
2.586923697E0,-6.366249919E-2,1.472624987E-1,2.667500079E-1
2.589457315E0,-6.462500244E-2,1.526249945E-1,2.752749920E-1
2.591991082E0,-6.462500244E-2,1.579875052E-1,2.710124850E-1
2.594524699E0,-6.036249921E-2,1.632124931E-1,2.646875083E-1
2.597058467E0,-5.609999970E-2,1.674750000E-1,2.561624944E-1
2.599592007E0,-5.197500065E-2,1.696749926E-1,2.476374954E-1
2.602125620E0,-4.551250115E-2,1.824624985E-1,2.422749996E-1
2.604659152E0,-4.441250116E-2,1.876875013E-1,2.411749959E-1
2.607192919E0,-4.344999790E-2,1.909874976E-1,2.422749996E-1
2.609726536E0,-4.235000163E-2,2.037750036E-1,2.359499931E-1
2.612260304E0,-4.977500066E-2,2.164250016E-1,2.283875048E-1
2.614793921E0,-5.829999968E-2,2.175250053E-1,2.167000026E-1
2.617327460E0,-6.146249920E-2,2.334749997E-1,2.092749923E-1
2.619861227E0,-7.424999774E-2,2.473624945E-1,1.986874938E-1
2.622394844E0,-8.167500049E-2,2.569875121E-1,1.879625022E-1
2.624928587E0,-9.239999950E-2,2.579500079E-1,1.742125005E-1
2.627462128E0,-9.666249901E-2,2.505249977E-1,1.625249982E-1
2.629995741E0,-1.050499976E-1,2.505249977E-1,1.571625024E-1
2.632529511E0,-1.189374998E-1,2.601499856E-1,1.528999954E-1
2.635063176E0,-1.306249946E-1,2.633124888E-1,1.539999992E-1
2.637596943E0,-1.456124932E-1,2.431000024E-1,1.571625024E-1
2.640130484E0,-1.519374996E-1,2.686749995E-1,1.614249945E-1
2.642664097E0,-1.667875051E-1,3.059374988E-1,1.677500010E-1
2.645197832E0,-1.753125042E-1,3.293125033E-1,1.751749963E-1
2.647731373E0,-1.817750037E-1,3.463625014E-1,1.816374958E-1
2.650264986E0,-1.903000027E-1,3.654749990E-1,1.870000064E-1
2.652798755E0,-1.997874975E-1,3.899500072E-1,1.901624948E-1
2.655332402E0,-2.083124965E-1,4.240500033E-1,1.944250017E-1
2.657865940E0,-2.157374918E-1,4.591124952E-1,1.922249943E-1
2.660399707E0,-2.242625058E-1,4.952749908E-1,1.922249943E-1
2.662933325E0,-2.338874936E-1,5.304750204E-1,1.964875013E-1
2.665467082E0,-2.435124964E-1,5.698000193E-1,1.944250017E-1
2.668000699E0,-2.498375028E-1,6.113250256E-1,1.922249943E-1
2.670534238E0,-2.540999949E-1,6.528499722E-1,1.944250017E-1
2.673068005E0,-2.637250125E-1,6.986374855E-1,1.933249980E-1
2.675601609E0,-2.657875121E-1,7.528125048E-1,1.953874975E-1
2.678135147E0,-2.722499967E-1,7.997000217E-1,1.986874938E-1
2.680668914E0,-2.807750106E-1,8.358625174E-1,2.050125003E-1
2.683202532E0,-2.956250012E-1,8.592374921E-1,2.029500008E-1
2.685736313E0,-3.104749918E-1,8.709250093E-1,1.912624985E-1
2.688269853E0,-3.179000020E-1,8.826124668E-1,1.720124930E-1
2.690803698E0,-3.179000020E-1,8.805499673E-1,1.432749927E-1
2.693337204E0,-3.147374988E-1,8.677625060E-1,1.113749966E-1
2.695870822E0,-3.095124960E-1,8.581374884E-1,7.947500050E-2
2.698404441E0,-2.976875007E-1,8.464499712E-1,5.073750019E-2
2.700981202E0,-2.839374840E-1,8.358625174E-1,3.795000166E-2
2.703471742E0,-2.765125036E-1,8.210124969E-1,3.478749841E-2
2.706005510E0,-2.754124999E-1,8.082249761E-1,3.795000166E-2
2.708539048E0,-2.732124925E-1,8.049250245E-1,4.647500068E-2
2.711072908E0,-2.722499967E-1,8.082249761E-1,6.036249921E-2
2.713606447E0,-2.743124962E-1,8.071249723E-1,7.631249726E-2
2.716140062E0,-2.785750031E-1,8.060249686E-1,9.226249903E-2
2.718673831E0,-2.796750069E-1,7.997000217E-1,1.028499976E-1
2.721207483E0,-2.796750069E-1,7.837499976E-1,1.113749966E-1
2.723741021E0,-2.817375064E-1,7.570750117E-1,1.199000031E-1
2.726274789E0,-2.891624868E-1,7.314999700E-1,1.252624989E-1
2.728808406E0,-2.891624868E-1,7.049624920E-1,1.337874979E-1
2.731341939E0,-2.870999873E-1,6.890124679E-1,1.432749927E-1
2.733875707E0,-2.913624942E-1,6.741625071E-1,1.614249945E-1
2.736409324E0,-2.967250049E-1,6.528499722E-1,1.859000027E-1
2.738943091E0,-2.956250012E-1,6.315374970E-1,2.007499933E-1
2.741476627E0,-2.891624868E-1,6.198499799E-1,2.092749923E-1
2.744010240E0,-2.913624942E-1,6.081625223E-1,2.146375030E-1
2.746544009E0,-2.934249938E-1,6.198499799E-1,2.283875048E-1
2.749077627E0,-2.849000096E-1,6.454250216E-1,2.582249939E-1
2.751611413E0,-2.796750069E-1,6.389625072E-1,2.656500041E-1
2.754144953E0,-2.881999910E-1,6.369000077E-1,2.433750033E-1
2.756678567E0,-3.062124848E-1,6.358000040E-1,2.241249979E-1
2.759212336E0,-3.136374950E-1,6.304374933E-1,2.029500008E-1
2.761745896E0,-3.030500114E-1,6.304374933E-1,1.805374920E-1
2.764279509E0,-2.828375101E-1,6.411625147E-1,1.677500010E-1
2.766813278E0,-2.700499892E-1,6.549124718E-1,1.667875051E-1
2.769346896E0,-2.668874860E-1,6.719624996E-1,1.742125005E-1
2.771880463E0,-2.594625056E-1,6.964374781E-1,1.890625060E-1
2.774414230E0,-2.529999912E-1,7.220125198E-1,2.072124928E-1
2.776947848E0,-2.402125001E-1,7.507500052E-1,2.209624946E-1
2.779481615E0,-2.296250015E-1,7.826499939E-1,2.326499969E-1
2.782015227E0,-2.232999951E-1,8.188124895E-1,2.359499931E-1
2.784548766E0,-2.157374918E-1,8.634999990E-1,2.326499969E-1
2.787082533E0,-2.083124965E-1,9.050250053E-1,2.199999988E-1
2.789616150E0,-2.008875012E-1,9.454500079E-1,2.039124966E-1
2.792149713E0,-1.923625022E-1,9.890375137E-1,1.912624985E-1
2.794683480E0,-1.870000064E-1,1.028499961E0,1.784749925E-1
2.797217097E0,-1.849374920E-1,1.064662457E0,1.677500010E-1
2.799750865E0,-1.775124967E-1,1.095462441E0,1.634874940E-1
2.802284449E0,-1.710499972E-1,1.117874980E0,1.645874977E-1
2.804817988E0,-1.625249982E-1,1.133824944E0,1.784749925E-1
2.807351755E0,-1.582625061E-1,1.152937531E0,1.870000064E-1
2.809885372E0,-1.541374922E-1,1.174250007E0,1.933249980E-1
2.812419153E0,-1.445125043E-1,1.192399979E0,1.953874975E-1
2.814952694E0,-1.370874941E-1,1.206149936E0,1.964875013E-1
2.817486307E0,-1.296624988E-1,1.216874957E0,1.901624948E-1
2.820020077E0,-1.200374961E-1,1.223199964E0,1.827374995E-1
2.822553603E0,-1.115124971E-1,1.227462530E0,1.762750000E-1
2.825087447E0,-1.072499976E-1,1.224300027E0,1.645874977E-1
2.827620988E0,-1.126125008E-1,1.234887481E0,1.582625061E-1
2.830154603E0,-1.211374998E-1,1.251937509E0,1.486375034E-1
2.832688403E0,-1.348875016E-1,1.274350047E0,1.390125006E-1
2.835221944E0,-1.498750001E-1,1.301987529E0,1.315875053E-1
2.837755557E0,-1.658249944E-1,1.324262500E0,1.241625026E-1
2.840289326E0,-1.827374995E-1,1.364825010E0,1.156374961E-1
2.842822940E0,-1.966249943E-1,1.413774967E0,1.050499976E-1
2.845356478E0,-2.114749998E-1,1.471249938E0,9.968750179E-2
2.847890245E0,-2.264624983E-1,1.544674993E0,1.007874981E-1
2.850423863E0,-2.392500043E-1,1.628687501E0,1.050499976E-1
2.852957606E0,-2.583625019E-1,1.716962457E0,1.124750003E-1
2.855491223E0,-2.732124925E-1,1.807437539E0,1.199000031E-1
2.858024762E0,-2.839374840E-1,1.895849943E0,1.347499937E-1
2.860558529E0,-2.987875044E-1,1.985224962E0,1.539999992E-1
2.863092162E0,-3.169375062E-1,2.069237471E0,1.709125042E-1
2.865625700E0,-3.317874968E-1,2.137437582E0,1.847999990E-1
2.868159467E0,-3.360500038E-1,2.179924965E0,1.922249943E-1
2.870693085E0,-3.392125070E-1,2.193812370E0,2.007499933E-1
2.873226837E0,-3.381125033E-1,2.184187412E0,2.103749961E-1
2.875760377E0,-3.264249861E-1,2.163975000E0,2.188999951E-1
2.878293991E0,-3.095124960E-1,2.112962484E0,2.241249979E-1
2.880827760E0,-2.956250012E-1,2.034174919E0,2.283875048E-1
2.883361363E0,-2.754124999E-1,1.950024962E0,2.411749959E-1
2.885895131E0,-2.646875083E-1,1.833012462E0,2.496999949E-1
2.888428671E0,-2.509374917E-1,1.743637443E0,2.454375029E-1
2.890962284E0,-2.327875048E-1,1.683962464E0,2.252250016E-1
2.893496044E0,-2.199999988E-1,1.623324990E0,1.870000064E-1
2.896029584E0,-1.988250017E-1,1.586062551E0,1.454750001E-1
2.898563198E0,-1.775124967E-1,1.573412538E0,1.199000031E-1
2.901096967E0,-1.710499972E-1,1.533949971E0,1.209999993E-1
2.903630584E0,-2.040500045E-1,1.445675015E0,9.652499855E-2
2.906164123E0,-2.179374993E-1,1.426424980E0,5.389999971E-2
2.908697890E0,-1.934625059E-1,1.422299981E0,1.787499990E-3
2.911231507E0,-1.689874977E-1,1.372249961E0,-5.032499880E-2
2.913765256E0,-1.456124932E-1,1.283837438E0,-3.753750026E-2
2.916298873E0,-1.391499937E-1,1.083775043E0,7.521250099E-2
2.918832411E0,-1.880999953E-1,9.294999838E-1,1.677500010E-1
2.921366179E0,-2.136749923E-1,9.135500193E-1,2.369125038E-1
2.923899777E0,-2.211000025E-1,8.879749775E-1,2.710124850E-1
2.926433315E0,-2.275625020E-1,8.443874717E-1,2.561624944E-1
2.928967083E0,-2.072124928E-1,8.017625213E-1,2.518999875E-1
2.931500700E0,-2.222000062E-1,7.496500015E-1,2.326499969E-1
2.934034447E0,-2.264624983E-1,7.049624920E-1,2.274249941E-1
2.936568065E0,-2.349874973E-1,6.591749787E-1,2.007499933E-1
2.939101832E0,-2.125750035E-1,5.911124945E-1,2.157374918E-1
2.941635372E0,-2.253624946E-1,4.889499843E-1,2.380124927E-1
2.944168996E0,-2.455749959E-1,4.261125028E-1,2.231625021E-1
2.946702765E0,-2.424124926E-1,3.942124844E-1,2.135374993E-1
2.949236306E0,-2.604250014E-1,3.398999870E-1,1.720124930E-1
2.951769919E0,-2.540999949E-1,3.239499927E-1,1.209999993E-1
2.954303688E0,-2.359499931E-1,3.271124959E-1,9.322500229E-2
2.956837306E0,-2.349874973E-1,3.016749918E-1,5.073750019E-2
2.959370844E0,-2.157374918E-1,2.974124849E-1,4.647500068E-2
2.961904611E0,-2.285249978E-1,2.739000022E-1,8.112499490E-3
2.964438215E0,-2.147749960E-1,2.675749958E-1,8.112499490E-3
2.966971982E0,-2.114749998E-1,2.590500116E-1,-2.378750034E-2
2.969505599E0,-2.030874938E-1,2.408999950E-1,1.787499990E-3
2.972039138E0,-2.114749998E-1,2.431000024E-1,-1.374999993E-3
2.974572890E0,-2.136749923E-1,2.111999989E-1,2.089999989E-2
2.977106507E0,-2.179374993E-1,2.431000024E-1,-3.657500073E-2
2.979640046E0,-2.083124965E-1,2.186249942E-1,-3.657500073E-2
2.982173813E0,-2.051499933E-1,2.388374954E-1,-8.442500234E-2
2.984707435E0,-1.923625022E-1,2.484624982E-1,-1.068374962E-1
2.987241203E0,-1.903000027E-1,2.345750034E-1,-9.721250087E-2
2.989774820E0,-1.891999990E-1,2.739000022E-1,-1.163249984E-1
2.992308359E0,-2.083124965E-1,2.271499932E-1,-1.280124933E-1
2.994842136E0,-1.923625022E-1,2.792625129E-1,-2.164250016E-1
2.997375753E0,-2.136749923E-1,2.366375029E-1,-2.579500079E-1
2.999909520E0,-2.349874973E-1,1.813624948E-1,-3.015374839E-1
3.002443061E0,-1.561999917E-1,3.293125033E-1,-3.601124883E-1
3.004976688E0,-1.254000068E-1,3.335750103E-1,-3.441624939E-1
3.007510458E0,-1.636250019E-1,2.058375031E-1,-2.791250050E-1
3.010043998E0,-1.551000029E-1,3.346749842E-1,-3.026374876E-1
3.012577842E0,-1.317249984E-1,4.123624861E-1,-2.866874933E-1
3.015111378E0,-1.891999990E-1,2.505249977E-1,-1.982749999E-1
3.017644993E0,-2.264624983E-1,2.835249901E-1,-2.259124964E-1
3.020178760E0,-1.838375032E-1,4.357374907E-1,-2.887499928E-1
3.022712301E0,-1.572999954E-1,3.973749876E-1,-3.057999909E-1
3.025245909E0,-1.934625059E-1,2.696374953E-1,-2.249500006E-1
3.027779678E0,-2.168374956E-1,3.378374875E-1,-2.536875010E-1
3.030313296E0,-1.880999953E-1,4.186874926E-1,-3.185875118E-1
3.032846834E0,-1.753125042E-1,3.612124920E-1,-2.791250050E-1
3.035380601E0,-2.296250015E-1,2.516250014E-1,-1.876875013E-1
3.037914219E0,-2.253624946E-1,3.899500072E-1,-2.089999914E-1
3.040447757E0,-1.903000027E-1,4.411000013E-1,-2.206874937E-1
3.042981601E0,-2.318249941E-1,3.037374914E-1,-1.524875015E-1
3.045515161E0,-2.275625020E-1,4.038375020E-1,-3.196874857E-1
3.048048928E0,-1.891999990E-1,4.548499882E-1,-6.335999966E-1
3.050582546E0,-1.743499935E-1,2.579500079E-1,-8.388875127E-1
3.053116313E0,-1.572999954E-1,1.696749926E-1,-9.070875049E-1
3.055649853E0,-1.551000029E-1,1.398375034E-1,-8.155124784E-1
3.058183472E0,-1.934625059E-1,3.341250122E-2,-6.006000042E-1
3.060717241E0,-2.072124928E-1,2.488750033E-2,-4.919750094E-1
3.063250781E0,-2.062499970E-1,5.046249926E-2,-5.324000120E-1
3.065784626E0,-1.912624985E-1,-1.759999990E-2,-6.048625112E-1
3.068318195E0,-1.732500046E-1,-8.786249906E-2,-6.516125202E-1
3.070851810E0,-1.561999917E-1,-1.314499974E-1,-6.665999889E-1
3.073385578E0,-1.423124969E-1,-1.751749963E-1,-6.697624922E-1
3.075919118E0,-1.317249984E-1,-2.134000063E-1,-6.803500056E-1
3.078452760E0,-1.263625026E-1,-2.486000061E-1,-6.931374669E-1
3.080986530E0,-1.231999993E-1,-2.793999910E-1,-6.920375228E-1
3.083520147E0,-1.200374961E-1,-3.038749993E-1,-6.793875098E-1
3.086053686E0,-1.211374998E-1,-3.220250010E-1,-6.643999815E-1
3.088587448E0,-1.220999956E-1,-3.357749879E-1,-6.356624961E-1
3.091121065E0,-1.254000068E-1,-3.496625125E-1,-6.100875139E-1
3.093654604E0,-1.285624951E-1,-3.570874929E-1,-5.909749866E-1
3.096188448E0,-1.328250021E-1,-3.539249897E-1,-5.718625188E-1
3.098722006E0,-1.359875053E-1,-3.465000093E-1,-5.537124872E-1
3.101255774E0,-1.402499974E-1,-3.305499852E-1,-5.494499803E-1
3.103789391E0,-1.498750001E-1,-3.188624978E-1,-5.516499877E-1
3.106322929E0,-1.561999917E-1,-3.103374839E-1,-5.548124909E-1
3.108856684E0,-1.647250056E-1,-3.018124998E-1,-5.590749979E-1
3.111390301E0,-1.710499972E-1,-2.932874858E-1,-5.559124947E-1
3.113924068E0,-1.764124930E-1,-2.858625054E-1,-5.409250259E-1
3.116457609E0,-1.880999953E-1,-2.825624943E-1,-5.036625266E-1
3.118991448E0,-1.903000027E-1,-2.708750069E-1,-4.377999902E-1
3.121524988E0,-1.838375032E-1,-2.144999951E-1,-4.122250080E-1
3.124058604E0,-1.870000064E-1,-1.900250018E-1,-4.313375056E-1
3.126592371E0,-1.903000027E-1,-1.900250018E-1,-4.218499959E-1
3.129125958E0,-2.019875050E-1,-1.942874938E-1,-3.163875043E-1
3.131659572E0,-2.190375030E-1,-1.527625024E-1,-2.791250050E-1
3.134193341E0,-2.392500043E-1,-1.399749964E-1,-3.334375024E-1
3.136726958E0,-2.487374991E-1,-1.559250057E-1,-3.898124993E-1
3.139260502E0,-2.477750033E-1,-1.516624987E-1,-4.398624897E-1
3.141794269E0,-2.424124926E-1,-1.592250019E-1,-4.739624858E-1
3.144327887E0,-2.370499969E-1,-1.815000027E-1,-4.930749834E-1
3.146861425E0,-2.275625020E-1,-1.964875013E-1,-5.112249851E-1
3.149395293E0,-2.199999988E-1,-2.134000063E-1,-5.164499879E-1
3.151928834E0,-2.136749923E-1,-2.304500043E-1,-5.101249814E-1
3.154462601E0,-2.114749998E-1,-2.538250089E-1,-4.899125099E-1
3.156996218E0,-2.105125040E-1,-2.773374915E-1,-4.611749947E-1
3.159529757E0,-2.072124928E-1,-2.975499928E-1,-4.335374832E-1
3.162063524E0,-1.988250017E-1,-2.986499965E-1,-3.920125067E-1
3.164597141E0,-1.860374957E-1,-2.996124923E-1,-3.451249897E-1
3.167130909E0,-1.764124930E-1,-2.996124923E-1,-2.941125035E-1
3.169664468E0,-1.615625024E-1,-2.975499928E-1,-2.429624945E-1
3.172198081E0,-1.541374922E-1,-2.996124923E-1,-2.089999914E-1
3.174731851E0,-1.487749964E-1,-3.049750030E-1,-1.887875050E-1
3.177265468E0,-1.306249946E-1,-2.953499854E-1,-1.259499937E-1
3.179799254E0,-1.126125008E-1,-2.836624980E-1,-3.753750026E-2
3.182332795E0,-1.104125008E-1,-2.591874897E-1,-1.952499896E-2
3.184866408E0,-9.982500225E-2,-2.176624984E-1,8.153750002E-2
3.187400177E0,-1.317249984E-1,-2.167000026E-1,1.219625026E-1
3.189933708E0,-1.636250019E-1,-2.059749961E-1,-6.737499963E-3
3.192467321E0,-1.710499972E-1,-2.411749959E-1,-1.430000067E-1
3.195001091E0,-1.530375034E-1,-2.634499967E-1,-2.377374917E-1
3.197534708E0,-1.285624951E-1,-2.613874972E-1,-2.993375063E-1
3.200068500E0,-1.061500013E-1,-2.699125111E-1,-3.366000056E-1
3.202602118E0,-8.703749627E-2,-2.751374841E-1,-3.601124883E-1
3.205135656E0,-7.218749821E-2,-2.868250012E-1,-3.718000054E-1
3.207669423E0,-7.108750194E-2,-3.018124998E-1,-3.695999980E-1
3.210203026E0,-7.961250097E-2,-3.113000095E-1,-3.504875004E-1
3.212736564E0,-9.446249902E-2,-3.092375100E-1,-3.238124847E-1
3.215270331E0,-1.093124971E-1,-2.943874896E-1,-2.993375063E-1
3.217803949E0,-1.178374961E-1,-2.773374915E-1,-2.824249864E-1
3.220337716E0,-1.263625026E-1,-2.538250089E-1,-2.622124851E-1
3.222871256E0,-1.328250021E-1,-2.261874974E-1,-2.451625019E-1
3.225404870E0,-1.380500048E-1,-1.974499971E-1,-2.301750034E-1
3.227938639E0,-1.434125006E-1,-1.751749963E-1,-2.099625021E-1
3.230472256E0,-1.530375034E-1,-1.601874977E-1,-1.865874976E-1
3.233006024E0,-1.678874940E-1,-1.581249982E-1,-1.557874978E-1
3.235539564E0,-1.870000064E-1,-1.516624987E-1,-1.046374962E-1
3.238073178E0,-1.903000027E-1,-1.293874979E-1,-4.083750024E-2
3.240606933E0,-1.795749962E-1,-8.896250278E-2,-1.842499897E-2
3.243140473E0,-1.658249944E-1,-8.043749630E-2,1.093124971E-1
3.245674087E0,-1.582625061E-1,-3.464999795E-2,1.922249943E-1
3.248207856E0,-1.615625024E-1,-2.722499892E-2,3.478749841E-2
3.250741472E0,-1.625249982E-1,-1.091749966E-1,-1.355749965E-1
3.253275239E0,-1.328250021E-1,-1.484999955E-1,-2.323749959E-1
3.255808780E0,-1.050499976E-1,-1.879625022E-1,-2.866874933E-1
3.258342393E0,-8.387500048E-2,-2.293500006E-1,-3.291749954E-1
3.260876163E0,-6.366249919E-2,-2.528625131E-1,-3.504875004E-1
3.263409780E0,-4.441250116E-2,-2.815999985E-1,-3.601124883E-1
3.265943318E0,-3.588749841E-2,-3.103374839E-1,-3.568125069E-1
3.268477086E0,-3.272499889E-2,-3.357749879E-1,-3.482874930E-1
3.271010694E0,-3.492499888E-2,-3.390749991E-1,-3.451249897E-1
3.273544233E0,-4.441250116E-2,-3.273875117E-1,-3.547500074E-1
3.276078000E0,-5.087500066E-2,-3.145999908E-1,-3.664374948E-1
3.278611617E0,-5.609999970E-2,-3.018124998E-1,-3.803249896E-1
3.281145369E0,-6.036249921E-2,-2.793999910E-1,-3.931125104E-1
3.283678987E0,-5.939999968E-2,-2.528625131E-1,-4.036999941E-1
3.286212525E0,-6.366249919E-2,-2.304500043E-1,-4.196499884E-1
3.288746292E0,-6.572499871E-2,-2.048749924E-1,-4.366999865E-1
3.291279881E0,-6.572499871E-2,-1.794375032E-1,-4.558124840E-1
3.293813648E0,-7.315000147E-2,-1.581249982E-1,-4.782249928E-1
3.296347189E0,-7.741250098E-2,-1.495999992E-1,-4.962374866E-1
3.298880802E0,-8.910000324E-2,-1.581249982E-1,-4.782249928E-1
3.301414576E0,-1.126125008E-1,-1.655499935E-1,-3.590124846E-1
3.303948117E0,-1.231999993E-1,-1.219625026E-1,-2.451625019E-1
3.306481730E0,-1.104125008E-1,-5.706249923E-2,-2.503874898E-1
3.309015499E0,-1.126125008E-1,-6.655000150E-2,-1.600500047E-1
3.311549084E0,-7.644999772E-2,-5.912499968E-3,-4.716249928E-2
3.314082851E0,-5.719999969E-2,1.856249943E-2,-2.664749920E-1
3.316616391E0,-6.256250292E-2,-9.102500230E-2,-5.154874921E-1
3.319150005E0,-4.661250114E-2,-1.410750002E-1,-6.729249954E-1
3.321683735E0,-3.162499890E-2,-1.846625060E-1,-7.602375150E-1
3.324217352E0,-2.103750035E-2,-2.315499932E-1,-8.017625213E-1
3.326750891E0,-2.887499984E-3,-2.793999910E-1,-8.166124821E-1
3.329284735E0,1.306249946E-2,-3.188624978E-1,-8.186749816E-1
3.331818257E0,2.681249939E-2,-3.433375061E-1,-8.006625175E-1
3.334352024E0,3.327500075E-2,-3.656125069E-1,-7.739874721E-1
3.336885641E0,2.901249938E-2,-3.806000054E-1,-7.420874834E-1
3.339419180E0,1.828750037E-2,-3.943499923E-1,-7.090874910E-1
3.341952942E0,9.762499481E-3,-4.082374871E-1,-6.697624922E-1
3.344486559E0,1.237499993E-3,-4.219875038E-1,-6.271374822E-1
3.347020326E0,-3.987499978E-3,-4.295499921E-1,-5.835499763E-1
3.349553867E0,-6.187499966E-3,-4.273499846E-1,-5.388625264E-1
3.352087490E0,-1.044999994E-2,-4.338124990E-1,-4.910124838E-1
3.354621260E0,-2.213750035E-2,-4.444000125E-1,-4.281750023E-1
3.357154800E0,-4.977500066E-2,-4.592500031E-1,-2.919124961E-1
3.359688644E0,-8.483749628E-2,-4.464625120E-1,-2.268750034E-2
3.362222181E0,-1.029874980E-1,-3.315125108E-1,4.061749876E-1
3.364755796E0,-1.141249947E-2,-7.081250101E-2,4.147000015E-1
3.367289563E0,1.402499992E-2,-1.432749927E-1,9.006249905E-2
3.369823104E0,2.901249938E-2,-2.688125074E-1,-1.482249945E-1
3.372356745E0,5.664999783E-2,-2.921875119E-1,-2.503874898E-1
3.374890514E0,5.775000155E-2,-3.240875006E-1,-2.727999985E-1
3.377424132E0,6.091250107E-2,-3.145999908E-1,-2.483250052E-1
3.379957670E0,7.686249912E-2,-3.198249936E-1,-2.173874974E-1
3.382491433E0,1.013374999E-1,-3.465000093E-1,-1.887875050E-1
3.385025051E0,1.130250022E-1,-3.687750101E-1,-1.524875015E-1
3.387558818E0,1.183874980E-1,-3.730374873E-1,-1.120624989E-1
3.390092359E0,1.098624989E-1,-3.507624865E-1,-5.884999782E-2
3.392625957E0,9.391249716E-2,-3.092375100E-1,-1.099999994E-2
3.395159726E0,7.479999959E-2,-2.656500041E-1,2.736249939E-2
3.397693344E0,5.871250108E-2,-2.304500043E-1,4.647500068E-2
3.400227111E0,4.496249929E-2,-1.974499971E-1,5.389999971E-2
3.402760632E0,3.753750026E-2,-1.612875015E-1,4.853750020E-2
3.405294246E0,3.643750027E-2,-1.208624989E-1,3.588749841E-2
3.407828015E0,3.107500076E-2,-7.617499679E-2,3.368749842E-2
3.410361555E0,2.364999987E-2,-2.832499892E-2,3.904999793E-2
3.412895400E0,2.158750035E-2,1.636249945E-2,5.183750018E-2
3.415428940E0,1.938750036E-2,5.678749830E-2,6.668750197E-2
3.417962555E0,2.364999987E-2,8.662500232E-2,8.057499677E-2
3.420496094E0,2.681249939E-2,1.068374962E-1,9.322500229E-2
3.423029856E0,2.997500077E-2,1.207249984E-1,9.542500228E-2
3.425563474E0,3.327500075E-2,1.303499937E-1,9.652499855E-2
3.428097241E0,3.533750027E-2,1.451999992E-1,9.226249903E-2
3.430630858E0,3.643750027E-2,1.472624987E-1,8.057499677E-2
3.433164426E0,3.849999979E-2,1.420374960E-1,6.875000149E-2
3.435698193E0,3.959999979E-2,1.281500012E-1,4.757500067E-2
3.438231810E0,3.849999979E-2,1.079374999E-1,2.309999987E-2
3.440765349E0,3.643750027E-2,8.346249908E-2,-5.637499969E-3
3.443299217E0,3.533750027E-2,5.362499878E-2,-3.341250122E-2
3.445832757E0,3.849999979E-2,2.488750033E-2,-5.678749830E-2
3.448366525E0,4.276249930E-2,-7.012499962E-3,-8.126249909E-2
3.450900065E0,4.606249928E-2,-3.684999794E-2,-1.046374962E-1
3.453433687E0,5.348749831E-2,-5.169999972E-2,-1.248499975E-1
3.455967457E0,5.348749831E-2,-7.727500051E-2,-1.493249983E-1
3.458501074E0,4.179999977E-2,-1.027124971E-1,-1.834249943E-1
3.461034841E0,3.107500076E-2,-1.187999994E-1,-2.249500006E-1
3.463568440E0,2.158750035E-2,-1.282874942E-1,-2.727999985E-1
3.466101978E0,1.512499992E-2,-1.357125044E-1,-3.185875118E-1
3.468635745E0,1.402499992E-2,-1.347499937E-1,-3.621749878E-1
3.471169286E0,1.402499992E-2,-1.304875016E-1,-3.940750062E-1
3.473703154E0,8.799999952E-3,-1.155000031E-1,-4.185499847E-1
3.476236694E0,2.749999985E-4,-1.219625026E-1,-4.494875073E-1
3.478770310E0,1.237499993E-3,-1.581249982E-1,-4.749250114E-1
3.481304077E0,7.699999958E-3,-1.794375032E-1,-5.016000271E-1
3.483837613E0,9.762499481E-3,-1.900250018E-1,-5.218124986E-1
3.486371226E0,7.699999958E-3,-2.007499933E-1,-5.335000157E-1
3.488904995E0,2.749999985E-4,-2.048749924E-1,-5.377625227E-1
3.491438613E0,-7.149999961E-3,-2.070749998E-1,-5.442249775E-1
3.493972366E0,-1.567500085E-2,-2.039124966E-1,-5.442249775E-1
3.496505906E0,-2.639999986E-2,-2.007499933E-1,-5.112249851E-1
3.499039520E0,-2.846249938E-2,-1.964875013E-1,-4.749250114E-1
3.501573289E0,-1.677500084E-2,-1.815000027E-1,-4.377999902E-1
3.504106819E0,-2.419999987E-2,-1.985500008E-1,-3.695999980E-1
3.506640433E0,-5.197500065E-2,-2.187625021E-1,-1.430000067E-1
3.509174202E0,-1.044999994E-2,-1.027124971E-1,-8.758749813E-2
3.511707819E0,-5.087499972E-3,-1.049124971E-1,-2.494249940E-1
3.514241343E0,-3.987499978E-3,-1.399749964E-1,-3.823874891E-1
3.516775187E0,4.537499975E-3,-1.549624950E-1,-4.196499884E-1
3.519308728E0,2.337499987E-3,-1.495999992E-1,-4.133250117E-1
3.521842495E0,-3.987499978E-3,-1.410750002E-1,-3.749625087E-1
3.524376035E0,-8.249999955E-3,-1.399749964E-1,-3.132250011E-1
3.526909649E0,-1.897500083E-2,-1.410750002E-1,-2.292124927E-1
3.529443418E0,-8.483749628E-2,-1.623875052E-1,-6.847500056E-2
3.531977035E0,-1.498750001E-1,-9.748750180E-2,1.953874975E-1
3.534510768E0,-1.710499972E-1,3.341250122E-2,4.008125067E-1
3.537044309E0,-1.243000031E-1,1.600500047E-1,3.806000054E-1
3.539577922E0,-8.483749628E-2,1.526249945E-1,1.645874977E-1
3.542111692E0,-7.644999772E-2,1.025749967E-1,-3.231250122E-2
3.544645223E0,-8.813749999E-2,9.831249714E-2,-9.831249714E-2
3.547179067E0,-1.168750003E-1,1.196250021E-1,-8.016250283E-2
3.549712608E0,-1.337874979E-1,1.600500047E-1,-3.341250122E-2
3.552246223E0,-1.254000068E-1,1.824624985E-1,2.406249940E-2
3.554779757E0,-1.009249985E-1,1.876875013E-1,7.727500051E-2
3.557313524E0,-7.851249725E-2,1.867250055E-1,1.252624989E-1
3.559847141E0,-5.939999968E-2,1.856250018E-1,1.656875014E-1
3.562380908E0,-4.551250115E-2,1.792999953E-1,1.901624948E-1
3.564914545E0,-3.066249937E-2,1.782000065E-1,1.953874975E-1
3.567448083E0,-1.471249945E-2,1.717374921E-1,1.912624985E-1
3.569981850E0,4.537499975E-3,1.643124968E-1,1.720124930E-1
3.572515468E0,2.158750035E-2,1.590874940E-1,1.401125044E-1
3.575048997E0,4.069999978E-2,1.494625062E-1,9.968750179E-2
3.577582841E0,6.297499686E-2,1.292500049E-1,5.816249922E-2
3.580116382E0,8.428750187E-2,1.058750004E-1,1.237499993E-2
3.582650149E0,1.033999994E-1,8.346249908E-2,-3.547500074E-2
3.585183690E0,1.194875017E-1,5.788749829E-2,-8.016250283E-2
3.587717534E0,1.343374997E-1,3.135000169E-2,-1.227874979E-1
3.590251074E0,1.428624988E-1,5.774999969E-3,-1.643124968E-1
3.592784690E0,1.482249945E-1,-1.869999990E-2,-1.962125003E-1
3.595318461E0,1.556500047E-1,-4.001250118E-2,-2.281125039E-1
3.597852001E0,1.608749926E-1,-5.912499875E-2,-2.429624945E-1
3.600385615E0,1.556500047E-1,-7.823749632E-2,-2.514874935E-1
3.602919384E0,1.406625062E-1,-1.027124971E-1,-2.494249940E-1
3.605453006E0,9.391249716E-2,-1.421750039E-1,-1.823250055E-1
3.607986545E0,-7.218749821E-2,-2.124374956E-1,9.652499855E-2
3.610520312E0,-1.007874981E-1,-1.553750038E-2,4.454999864E-1
3.613053930E0,7.796250284E-2,2.664749920E-1,1.922249943E-1
3.615587702E0,6.091250107E-2,2.708750032E-2,-1.088999957E-1
3.618121319E0,4.702499881E-2,2.598750032E-2,-5.995000154E-2
3.620654858E0,1.130250022E-1,1.739374995E-1,-7.383749634E-2
3.623188625E0,1.322750002E-1,1.099999994E-1,-1.737999916E-1
3.625722271E0,8.964999765E-2,5.266249925E-2,-2.056999952E-1
3.628255810E0,2.791249938E-2,3.135000169E-2,-8.978749812E-2
3.630789654E0,9.597499669E-2,1.430000067E-1,-8.442500234E-2
3.633323194E0,1.727000028E-1,1.079374999E-1,-2.175250053E-1
3.635856962E0,2.003374994E-1,-1.553750038E-2,-3.484250009E-1
3.638390502E0,1.471250057E-1,-1.442375034E-1,-2.483250052E-1
3.640924115E0,1.556500047E-1,-9.528750181E-2,-1.088999957E-1
3.643457885E0,2.301750034E-1,-1.237499993E-2,-2.344374955E-1
3.645991487E0,1.758625060E-1,-1.155000031E-1,-2.855874896E-1
3.648525254E0,7.053750008E-2,-1.868624985E-1,2.199999988E-2
3.651058872E0,5.458749831E-2,-4.853750020E-2,2.326499969E-1
3.653592410E0,-2.103750035E-2,-1.553750038E-2,4.529249966E-1
3.656126192E0,-5.609999970E-2,1.335124969E-1,6.275500059E-1
3.658659733E0,-1.361249946E-2,3.111625016E-1,5.732374787E-1
3.661193577E0,-5.087499972E-3,3.506250083E-1,4.189625084E-1
3.663727117E0,2.364999987E-2,3.675374985E-1,2.433750033E-1
3.666260742E0,1.311749965E-1,3.760625124E-1,-1.046374962E-1
3.668794509E0,1.684374958E-1,2.612499893E-1,-4.100250006E-1
3.671328126E0,1.226499975E-1,1.409374923E-1,-2.451625019E-1
3.673861665E0,1.971749961E-1,1.782000065E-1,-2.036374956E-1
3.676395453E0,2.056999952E-1,5.582499877E-2,-2.770625055E-1
3.678929071E0,8.964999765E-2,-7.823749632E-2,1.731124967E-1
3.681462838E0,6.833750010E-2,2.598750032E-2,5.168625116E-1
3.683996378E0,1.087625027E-1,5.362499878E-2,5.572875142E-1
3.686529958E0,1.354375035E-1,4.729999974E-2,3.348124921E-1
3.689063498E0,1.619749963E-1,1.856249943E-2,1.762750000E-1
3.691597342E0,1.608749926E-1,3.767500073E-2,-1.952499896E-2
3.694130873E0,9.075000137E-2,3.135000169E-2,1.859000027E-1
3.696664575E0,8.648750186E-2,1.377750039E-1,2.454375029E-1
3.699198256E0,7.576250285E-2,1.622499973E-1,3.093749881E-1
3.701732025E0,1.258125007E-1,1.750375032E-1,1.933249980E-1
3.704265565E0,1.044999957E-1,1.175625026E-1,2.092749923E-1
3.706799179E0,1.385999918E-1,1.068374962E-1,2.114749998E-1
3.709332948E0,1.534499973E-1,7.383749634E-2,1.082125008E-1
3.711866594E0,1.801249981E-1,2.708750032E-2,1.412124932E-1
3.714400133E0,2.481874973E-1,-1.017499994E-2,7.095000148E-2
3.716933900E0,2.567124963E-1,-9.102500230E-2,1.979999989E-2
3.719467517E0,2.663374841E-1,-1.049124971E-1,2.199999988E-2
3.722001255E0,2.259124964E-1,-9.102500230E-2,1.836999953E-1
3.724534796E0,1.832875013E-1,-5.376249924E-2,2.891624868E-1
3.727068409E0,2.470874935E-1,-2.406249940E-2,1.475374997E-1
3.729602179E0,2.556124926E-1,-6.875000149E-2,1.093124971E-1
3.732135791E0,2.140875012E-1,-5.169999972E-2,1.412124932E-1
3.734669558E0,2.492875010E-1,-3.781250119E-2,1.773750037E-2
3.737203099E0,3.025000095E-1,-9.212499857E-2,-1.035374999E-1
3.739736712E0,2.800875008E-1,-1.229249984E-1,1.347499993E-2
3.742270229E0,2.396624982E-1,-8.896250278E-2,8.153750002E-2
3.744804073E0,2.290749997E-1,-5.912499875E-2,1.315875053E-1
3.747337613E0,2.865499854E-1,-8.359999955E-2,5.389999971E-2
3.749871380E0,3.705624938E-1,-1.772374958E-1,-8.868750185E-2
3.752404989E0,3.887124956E-1,-2.782999873E-1,-1.407999992E-1
3.754938527E0,3.247750103E-1,-2.943874896E-1,-2.694999985E-2
3.757472294E0,2.333374918E-1,-2.369125038E-1,1.964875013E-1
3.760005912E0,1.769624949E-1,-1.495999992E-1,3.082749844E-1
3.762539659E0,1.556500047E-1,-8.579999954E-2,3.583250046E-1
3.765073276E0,2.066625059E-1,-8.786249906E-2,2.380124927E-1
3.767607044E0,3.025000095E-1,-1.794375032E-1,6.242499873E-2
3.770140584E0,3.673999906E-1,-2.879250050E-1,-5.458749831E-2
3.772674118E0,3.748250008E-1,-3.635500073E-1,-6.627500057E-2
3.775207962E0,3.471874893E-1,-4.017750025E-1,-4.124999978E-4
3.777741502E0,3.205125034E-1,-4.102999866E-1,9.432499856E-2
3.780275118E0,3.067624867E-1,-4.156624973E-1,1.731124967E-1
3.782808890E0,3.078624904E-1,-4.305124879E-1,2.081750035E-1
3.785342507E0,3.067624867E-1,-4.454999864E-1,2.135374993E-1
3.787876046E0,3.014000058E-1,-4.540250003E-1,2.039124966E-1
3.790409813E0,2.950749993E-1,-4.507249892E-1,2.007499933E-1
3.792943411E0,2.769249976E-1,-4.390375018E-1,2.007499933E-1
3.795477179E0,2.535499930E-1,-4.113999903E-1,2.103749961E-1
3.798010796E0,2.311374992E-1,-3.837625086E-1,2.220624983E-1
3.800544334E0,2.088624984E-1,-3.507624865E-1,2.252250016E-1
3.803078102E0,1.949750036E-1,-3.262875080E-1,2.274249941E-1
3.805611719E0,1.801249981E-1,-3.123999834E-1,2.252250016E-1
3.808145258E0,1.662375033E-1,-3.038749993E-1,2.294874936E-1
3.810679025E0,1.567499936E-1,-2.943874896E-1,2.369125038E-1
3.813212685E0,1.482249945E-1,-2.793999910E-1,2.476374954E-1
3.815746452E0,1.396999955E-1,-2.613874972E-1,2.613874972E-1
3.818279993E0,1.311749965E-1,-2.506625056E-1,2.730749846E-1
3.820813837E0,1.269125044E-1,-2.443374991E-1,2.815999985E-1
3.823347373E0,1.237500012E-1,-2.358125001E-1,2.838000059E-1
3.825880988E0,1.172875017E-1,-2.219250053E-1,2.954874933E-1
3.828414755E0,1.130250022E-1,-2.081750035E-1,3.145999908E-1
3.830948296E0,1.141249985E-1,-1.953874975E-1,3.401750028E-1
3.833481914E0,1.172875017E-1,-1.857624948E-1,3.625875115E-1
3.836015683E0,1.258125007E-1,-1.815000027E-1,3.837625086E-1
3.838549224E0,1.375000030E-1,-1.868624985E-1,3.837625086E-1
3.841082837E0,1.502874941E-1,-1.964875013E-1,3.785375059E-1
3.843616596E0,1.694000065E-1,-2.048749924E-1,3.668499887E-1
3.846150214E0,1.853500009E-1,-2.124374956E-1,3.592875004E-1
3.848683752E0,2.014375031E-1,-2.219250053E-1,3.529624939E-1
3.851217519E0,2.183499932E-1,-2.293500006E-1,3.486999869E-1
3.853751156E0,2.461249977E-1,-2.411749959E-1,3.370124996E-1
3.856284923E0,2.715624869E-1,-2.602874935E-1,3.145999908E-1
3.858818540E0,2.928749919E-1,-2.773374915E-1,2.806375027E-1
3.861352079E0,3.067624867E-1,-2.910875082E-1,2.402125001E-1
3.863885860E0,3.141874969E-1,-2.975499928E-1,1.922249943E-1
3.866419478E0,3.152875006E-1,-2.943874896E-1,1.401125044E-1
3.868953245E0,3.110249937E-1,-2.879250050E-1,8.896250278E-2
3.871486785E0,3.088249862E-1,-2.793999910E-1,3.478749841E-2
3.874020381E0,3.110249937E-1,-2.762374878E-1,-1.209999993E-2
3.876554150E0,3.280749917E-1,-2.901250124E-1,-4.289999977E-2
3.879087767E0,3.577750027E-1,-3.220250010E-1,-6.215000153E-2
3.881621535E0,3.939374983E-1,-3.613499999E-1,-8.662500232E-2
3.884155112E0,4.142875075E-1,-3.932499886E-1,-1.185249984E-1
3.886688725E0,4.078249931E-1,-4.145624936E-1,-1.482249945E-1
3.889222495E0,3.898124993E-1,-4.252874851E-1,-1.621125042E-1
3.891756035E0,3.727625012E-1,-4.433000088E-1,-1.674750000E-1
3.894289643E0,3.651999831E-1,-4.666749835E-1,-1.717374921E-1
3.896823413E0,3.620375097E-1,-4.933499992E-1,-1.737999916E-1
3.899357030E0,3.535124958E-1,-5.050374866E-1,-1.802625060E-1
3.901890569E0,3.312374949E-1,-5.326749682E-1,-1.663749963E-1
3.904424466E0,3.067624867E-1,-5.369374752E-1,-1.216875017E-1
3.906958006E0,3.014000058E-1,-5.081999898E-1,-1.046374962E-1
3.909491773E0,3.056625128E-1,-5.039374828E-1,-1.163249984E-1
3.912025391E0,3.014000058E-1,-4.996750057E-1,-1.291124970E-1
3.914558929E0,2.993375063E-1,-4.987125099E-1,-1.259499937E-1
3.917092697E0,2.971374989E-1,-4.996750057E-1,-1.291124970E-1
3.919626314E0,3.003000021E-1,-5.072374940E-1,-1.482249945E-1
3.922160081E0,3.003000021E-1,-5.135625005E-1,-1.578499973E-1
3.924693627E0,2.928749919E-1,-5.081999898E-1,-1.450625062E-1
3.927227240E0,2.800875008E-1,-4.933499992E-1,-1.046374962E-1
3.929761009E0,2.652375102E-1,-4.666749835E-1,-4.179999977E-2
3.932294627E0,2.609750032E-1,-4.412375093E-1,7.149999961E-3
3.934828389E0,2.630375028E-1,-4.134624898E-1,4.331250116E-2
3.937361929E0,2.769249976E-1,-3.880249858E-1,5.279999971E-2
3.939895543E0,2.908124924E-1,-3.741374910E-1,5.706249923E-2
3.942429312E0,2.982375026E-1,-3.559874892E-1,8.373750001E-2
3.944962915E0,2.939749956E-1,-3.273875117E-1,1.209999993E-1
3.947496454E0,2.897124887E-1,-2.953499854E-1,1.592250019E-1
3.950030221E0,2.886124849E-1,-2.602874935E-1,1.986874938E-1
3.952563838E0,2.800875008E-1,-2.209624946E-1,2.337500006E-1
3.955097611E0,2.715624869E-1,-1.815000027E-1,2.710124850E-1
3.957631228E0,2.652375102E-1,-1.399749964E-1,3.103374839E-1
3.960164767E0,2.663374841E-1,-9.322500229E-2,3.433375061E-1
3.962698534E0,2.684000134E-1,-5.376249924E-2,3.731749952E-1
3.965232136E0,2.748624980E-1,-2.076249942E-2,3.987500072E-1
3.967765675E0,2.769249976E-1,1.003750041E-2,4.232249856E-1
3.970299442E0,2.822875082E-1,4.083750024E-2,4.497624934E-1
3.972833059E0,2.843500078E-1,6.957499683E-2,4.796000123E-1
3.975366817E0,2.822875082E-1,9.624999762E-2,5.040749907E-1
3.977900357E0,2.811875045E-1,1.313125044E-1,5.317124724E-1
3.980433970E0,2.800875008E-1,1.685750037E-1,5.721374750E-1
3.982967740E0,2.748624980E-1,1.952500045E-1,6.062374711E-1
3.985501362E0,2.715624869E-1,2.164250016E-1,6.360750198E-1
3.988035129E0,2.705999911E-1,2.260500044E-1,6.668750048E-1
3.990568670E0,2.758249938E-1,2.228875011E-1,6.892874837E-1
3.993102283E0,2.865499854E-1,2.143625021E-1,7.158250213E-1
3.995636038E0,3.067624867E-1,1.898874938E-1,7.467625141E-1
3.998169656E0,3.290374875E-1,1.548250020E-1,7.903500199E-1
4.000703194E0,3.471874893E-1,1.270499974E-1,8.435624838E-1
4.003236961E0,3.557125032E-1,1.025749967E-1,9.042000175E-1
4.005770559E0,3.673999906E-1,7.603749633E-2,9.679999948E-1
4.008304326E0,3.844499886E-1,4.303750023E-2,1.026574969E0
4.010837867E0,3.972375095E-1,-1.553750038E-2,1.059574962E0
4.013371480E0,4.217124879E-1,-1.017499994E-2,1.118149996E0
4.015905249E0,4.217124879E-1,5.774999969E-3,1.189375043E0
4.018438867E0,4.078249931E-1,1.209999993E-2,1.243687510E0
4.020972405E0,3.982000053E-1,4.509999976E-2,1.284112453E0
4.023506172E0,3.844499886E-1,9.404999763E-2,1.320274949E0
4.026039805E0,3.673999906E-1,1.494625062E-1,1.350112438E0
4.028573572E0,3.568125069E-1,2.026749998E-1,1.367162466E0
4.031107112E0,3.449875116E-1,2.516250014E-1,1.375687480E0
4.033640957E0,3.343999982E-1,3.185875118E-1,1.375687480E0
4.036174497E0,3.216125071E-1,3.910500109E-1,1.367162466E0
4.038708112E0,3.045625091E-1,4.644750059E-1,1.360700011E0
4.041241651E0,2.886124849E-1,5.399624705E-1,1.354375005E0
4.043775418E0,2.748624980E-1,6.176499724E-1,1.342687488E0
4.046309035E0,2.684000134E-1,6.932749748E-1,1.331962466E0
4.048842803E0,2.705999911E-1,7.709624767E-1,1.328799963E0
4.051376420E0,2.663374841E-1,8.401250243E-1,1.339524984E0
4.053909959E0,2.524499893E-1,8.742250204E-1,1.371425033E0
4.056443750E0,2.385624945E-1,8.742250204E-1,1.433162451E0
4.058977367E0,2.524499893E-1,9.061250091E-1,1.483075023E0
4.061511134E0,2.748624980E-1,9.400874972E-1,1.511812449E0
4.064044675E0,3.036000133E-1,9.380249977E-1,1.525699973E0
4.066578283E0,3.238124847E-1,9.326624870E-1,1.534224987E0
4.069112053E0,3.205125034E-1,9.209749699E-1,1.550174952E0
4.071645670E0,3.247750103E-1,9.465500116E-1,1.551275015E0
4.074179437E0,3.258749843E-1,1.019974947E0,1.547012448E0
4.076712992E0,3.099249899E-1,1.050775051E0,1.550174952E0
4.079246605E0,2.950749993E-1,1.021075010E0,1.570387483E0
4.081780374E0,2.982375026E-1,9.699249864E-1,1.569287539E0
4.084313915E0,3.003000021E-1,1.015712500E0,1.552374959E0
4.086847528E0,2.694999874E-1,1.078549981E0,1.559800029E0
4.089381297E0,2.407625020E-1,1.117874980E0,1.569287539E0
4.091914915E0,2.140875012E-1,1.173149943E0,1.561862469E0
4.094448453E0,1.821874976E-1,1.245612502E0,1.539587498E0
4.096982225E0,1.556500047E-1,1.309412479E0,1.492699981E0
4.099515843E0,1.322750002E-1,1.385037541E0,1.439487457E0
4.102049610E0,1.161874980E-1,1.425462484E0,1.408687472E0
4.104583227E0,9.817499667E-2,1.412675023E0,1.380912542E0
4.107116766E0,6.407500058E-2,1.440312505E0,1.348049998E0
4.109650533E0,5.032499880E-2,1.513737440E0,1.318212509E0
4.112184151E0,2.474999987E-2,1.562687516E0,1.285212517E0
4.114717689E0,-8.249999955E-4,1.588262439E0,1.249050021E0
4.117251466E0,-2.213750035E-2,1.647799969E0,1.216050029E0
4.119785084E0,-4.344999790E-2,1.714900017E0,1.195837498E0
4.122318851E0,-6.036249921E-2,1.720262527E0,1.189375043E0
4.124852468E0,-6.682500243E-2,1.705274940E0,1.212887526E0
4.127386240E0,-6.366249919E-2,1.773474932E0,1.228837490E0
4.129919781E0,-5.829999968E-2,1.800012469E0,1.228837490E0
4.132453394E0,-4.441250116E-2,1.804275036E0,1.238325000E0
4.134987164E0,-5.293750018E-2,1.805374980E0,1.295799971E0
4.137520771E0,-6.256250292E-2,1.812799931E0,1.351212502E0
4.140054309E0,-5.087500066E-2,1.825587511E0,1.384212494E0
4.142588077E0,-4.344999790E-2,1.844699979E0,1.439487457E0
4.145121694E0,-5.829999968E-2,1.871374965E0,1.512912512E0
4.147655466E0,-7.535000145E-2,1.871374965E0,1.557600021E0
4.150189007E0,-7.315000147E-2,1.827649951E0,1.613012433E0
4.152722620E0,-6.888750196E-2,1.790387511E0,1.643812537E0
4.155256389E0,-6.256250292E-2,1.818162441E0,1.638450027E0
4.157789983E0,-6.572499871E-2,1.858587503E0,1.658800006E0
4.160323521E0,-8.483749628E-2,1.881962538E0,1.720399976E0
4.162857289E0,-1.007874981E-1,1.945762515E0,1.737450004E0
4.165390906E0,-1.146750003E-1,2.083124876E0,1.737450004E0
4.167924478E0,-1.220999956E-1,2.200137377E0,1.747074962E0
4.170458246E0,-1.178374961E-1,2.336400032E0,1.712975025E0
4.172991863E0,-1.135749966E-1,2.508825064E0,1.656599998E0
4.175525630E0,-1.093124971E-1,2.647150040E0,1.632125020E0
4.178059258E0,-1.007874981E-1,2.780112505E0,1.590600014E0
4.180593025E0,-9.019999951E-2,2.925999880E0,1.536287546E0
4.183126565E0,-8.813749999E-2,3.093062401E0,1.489537477E0
4.185660179E0,-9.556250274E-2,3.206912518E0,1.453374982E0
4.188193933E0,-1.093124971E-1,3.313337564E0,1.432062507E0
4.190727473E0,-1.231999993E-1,3.386762381E0,1.425737500E0
4.193261087E0,-1.359875053E-1,3.449599981E0,1.443750024E0
4.195794856E0,-1.434125006E-1,3.482599974E0,1.495862484E0
4.198328493E0,-1.423124969E-1,3.474075079E0,1.533125043E0
4.200862032E0,-1.285624951E-1,3.475037575E0,1.573549986E0
4.203395799E0,-1.135749966E-1,3.504874945E0,1.656599998E0
4.205929417E0,-1.040875018E-1,3.526187420E0,1.765224934E0
4.208463184E0,-8.910000324E-2,3.556987524E0,1.862025023E0
4.210996801E0,-6.888750196E-2,3.601675034E0,1.966249943E0
4.213530340E0,-5.719999969E-2,3.666712523E0,2.105674982E0
4.216064107E0,-4.344999790E-2,3.734775066E0,2.258987427E0
4.218597724E0,-2.887499984E-3,3.801737547E0,2.366374969E0
4.221131491E0,3.423750028E-2,3.863475084E0,2.433475018E0
4.223665032E0,6.297499686E-2,3.893312454E0,2.468537569E0
4.226198645E0,7.369999588E-2,3.936899900E0,2.479262590E0
4.228732420E0,8.428750187E-2,3.973200083E0,2.466475010E0
4.231266037E0,9.927500039E-2,4.001937389E0,2.429212570E0
4.233799804E0,1.035374999E-1,4.040162563E0,2.368575096E0
4.236333345E0,1.087625027E-1,4.070000172E0,2.299412489E0
4.238866962E0,1.215500012E-1,4.082787514E0,2.214299917E0
4.241400731E0,1.280124933E-1,4.097637653E0,2.105674982E0
4.243934272E0,1.269125044E-1,4.081687450E0,1.984400034E0
4.246467885E0,1.363999993E-1,4.032737255E0,1.848137498E0
4.249001654E0,1.428624988E-1,3.949687481E0,1.705549955E0
4.251535277E0,1.439625025E-1,3.831574917E0,1.569287539E0
4.254069044E0,1.417624950E-1,3.702874899E0,1.441687465E0
4.256602661E0,1.354375035E-1,3.560287476E0,1.329900026E0
4.259136200E0,1.269125044E-1,3.415499926E0,1.224575043E0
4.261669967E0,1.204499975E-1,3.241975069E0,1.115949988E0
4.264203585E0,1.289750040E-1,3.050437450E0,1.012825012E0
4.266737123E0,1.502874941E-1,2.834424973E0,9.116249681E-1
4.269270890E0,1.769624949E-1,2.613049984E0,8.051999807E-1
4.271804518E0,2.035000026E-1,2.411887407E0,7.073000073E-1
4.274338285E0,2.353999913E-1,2.199174881E0,6.136624813E-1
4.276871825E0,2.578125000E-1,1.978762507E0,5.211250186E-1
4.279405439E0,2.663374841E-1,1.784062505E0,4.380750060E-1
4.281939198E0,2.684000134E-1,1.630887508E0,3.583250046E-1
4.284472815E0,2.684000134E-1,1.494624972E0,2.827000022E-1
4.287006583E0,2.769249976E-1,1.374312520E0,2.157374918E-1
4.289540123E0,2.886124849E-1,1.256199956E0,1.497374922E-1
4.292073731E0,2.993375063E-1,1.142349958E0,8.689999580E-2
4.294607501E0,3.067624867E-1,1.022037506E0,2.309999987E-2
4.297141118E0,3.121249974E-1,8.773875237E-1,-3.341250122E-2
4.299674657E0,3.099249899E-1,7.231125236E-1,-9.501250088E-2
4.302208448E0,3.045625091E-1,5.549499989E-1,-1.557874978E-1
4.304742065E0,2.950749993E-1,3.931125104E-1,-2.132624984E-1
4.307275832E0,2.886124849E-1,2.356749922E-1,-2.696374953E-1
4.309809450E0,2.886124849E-1,8.882500231E-2,-3.196874857E-1
4.312342983E0,2.886124849E-1,-3.891250119E-2,-3.675374985E-1
4.314876750E0,2.865499854E-1,-1.570249945E-1,-4.142875075E-1
4.317410368E0,2.822875082E-1,-2.623499930E-1,-4.547125101E-1
4.319943906E0,2.715624869E-1,-3.496625125E-1,-4.941749871E-1
4.322477689E0,2.513499856E-1,-4.305124879E-1,-5.357000232E-1
4.325011306E0,2.353999913E-1,-4.965125024E-1,-5.781875253E-1
4.327545073E0,2.183499932E-1,-5.486249924E-1,-6.165499687E-1
4.330078691E0,2.035000026E-1,-5.869874954E-1,-6.580749750E-1
4.332612189E0,1.907124966E-1,-6.274124980E-1,-6.962999701E-1
4.335145956E0,1.769624949E-1,-6.646749973E-1,-7.250375152E-1
4.337679574E0,1.641750038E-1,-6.848874688E-1,-7.400249839E-1
4.340213341E0,1.471250057E-1,-6.891499758E-1,-7.517125010E-1
4.342746886E0,1.247124970E-1,-6.923124790E-1,-7.591375113E-1
4.345280500E0,1.044999957E-1,-6.976749897E-1,-7.665625215E-1
4.347814269E0,8.318749815E-2,-6.976749897E-1,-7.697250247E-1
4.350347886E0,7.906249911E-2,-7.062000036E-1,-7.634000182E-1
4.352881430E0,8.222500235E-2,-7.156875134E-1,-7.548750043E-1
4.355415197E0,8.002500236E-2,-7.167875171E-1,-7.431874871E-1
4.357948815E0,6.517499685E-2,-6.923124790E-1,-7.229750156E-1
4.360482582E0,4.276249930E-2,-6.550499797E-1,-6.973999739E-1
4.363016098E0,1.938750036E-2,-6.051374674E-1,-6.590374708E-1
4.365549712E0,5.499999970E-3,-5.519250035E-1,-6.037625074E-1
4.368083481E0,-2.887499984E-3,-4.868874848E-1,-5.229125023E-1
4.370617098E0,-1.044999994E-2,-4.102999866E-1,-4.302375019E-1
4.373150850E0,-1.787500083E-2,-3.209249973E-1,-3.313750029E-1
4.375684391E0,-3.698749840E-2,-2.176624984E-1,-2.387000024E-1
4.378218004E0,-7.631249726E-2,-7.823749632E-2,-1.684374958E-1
4.380751774E0,-1.211374998E-1,8.030000329E-2,-1.153625026E-1
4.383285362E0,-1.434125006E-1,2.367749959E-1,-7.053750008E-2
4.385818900E0,-1.434125006E-1,3.697375059E-1,-3.121249937E-2
4.388352668E0,-1.274625063E-1,4.963749945E-1,-1.636249945E-2
4.390886285E0,-1.146750003E-1,6.166874766E-1,-2.584999986E-2
4.393420047E0,-1.115124971E-1,7.273749709E-1,-5.362499878E-2
4.395953588E0,-1.135749966E-1,8.305000067E-1,-8.978749812E-2
4.398487201E0,-1.083500013E-1,9.241374731E-1,-1.333750039E-1
4.401020970E0,-1.083500013E-1,1.000862479E0,-1.706375033E-1
4.403554569E0,-1.061500013E-1,1.056137443E0,-1.962125003E-1
4.406088107E0,-1.157749966E-1,1.083775043E0,-2.121624947E-1
4.408621874E0,-1.243000031E-1,1.096562505E0,-2.216500044E-1
4.411155492E0,-1.380500048E-1,1.091199994E0,-2.175250053E-1
4.413689226E0,-1.434125006E-1,1.080612540E0,-2.047374994E-1
4.416222767E0,-1.285624951E-1,1.042250037E0,-1.908500046E-1
4.418756380E0,-9.239999950E-2,9.741874933E-1,-1.632124931E-1
4.421290149E0,-4.551250115E-2,9.029625058E-1,-1.216875017E-1
4.423823742E0,-1.897500083E-2,8.475499749E-1,-5.568749830E-2
4.426357509E0,5.499999970E-3,8.028625250E-1,1.141249947E-2
4.428891049E0,2.997500077E-2,7.528125048E-1,4.757500067E-2
4.431424663E0,3.959999979E-2,6.932749748E-1,5.926249921E-2
4.433958418E0,4.922499880E-2,6.166874766E-1,4.537500069E-2
4.436491958E0,4.812499881E-2,5.453249812E-1,1.663750038E-2
4.439025572E0,2.997500077E-2,4.921124876E-1,-1.319999993E-2
4.441559341E0,-1.924999990E-3,4.878500104E-1,-5.252499878E-2
4.444092963E0,-1.677500084E-2,4.974749982E-1,-9.184999764E-2
4.446626502E0,-9.349999949E-3,4.921124876E-1,-1.131625026E-1
4.449160346E0,1.306249946E-2,4.633750021E-1,-1.111000031E-1
4.451693887E0,3.107500076E-2,4.516874850E-1,-1.014750004E-1
4.454227663E0,3.753750026E-2,4.537499845E-1,-8.662500232E-2
4.456761280E0,4.276249930E-2,4.559499919E-1,-5.884999782E-2
4.459294819E0,3.959999979E-2,4.707999825E-1,-3.341250122E-2
4.461828586E0,3.849999979E-2,4.889499843E-1,-4.674999975E-3
4.464362203E0,3.959999979E-2,5.102624893E-1,1.347499993E-2
4.466895970E0,4.386249930E-2,5.368000269E-1,2.516249940E-2
4.469429511E0,4.386249930E-2,5.687000155E-1,3.368749842E-2
4.471963124E0,5.032499880E-2,5.974375010E-1,3.478749841E-2
4.474496909E0,5.348749831E-2,6.272749901E-1,3.258749843E-2
4.477030526E0,6.201250106E-2,6.602749825E-1,2.942499891E-2
4.479564293E0,6.833750010E-2,6.932749748E-1,2.406249940E-2
4.482097834E0,7.150000334E-2,7.262749672E-1,1.773750037E-2
4.484631442E0,7.150000334E-2,7.602375150E-1,1.237499993E-2
4.487165211E0,7.369999588E-2,8.028625250E-1,1.347499993E-2
4.489698829E0,7.686249912E-2,8.443874717E-1,1.663750038E-2
4.492232367E0,7.906249911E-2,8.816499710E-1,2.089999989E-2
4.494766173E0,8.318749815E-2,9.189124703E-1,2.406249940E-2
4.497299791E0,9.391249716E-2,9.497125149E-1,2.626249939E-2
4.499833558E0,9.707500041E-2,9.656624794E-1,2.516249940E-2
4.502367175E0,8.112499863E-2,1.009387493E0,3.478749841E-2
4.504900705E0,7.796250284E-2,1.040187478E0,4.221250117E-2
4.507434472E0,8.648750186E-2,1.041287541E0,5.183750018E-2
4.509968089E0,9.501250088E-2,1.033862472E0,5.279999971E-2
4.512501628E0,1.002374962E-1,1.024237514E0,5.279999971E-2
4.515035400E0,1.002374962E-1,1.007187486E0,5.499999970E-2
4.517569018E0,9.817499667E-2,9.890375137E-1,5.499999970E-2
4.520102785E0,9.707500041E-2,9.710249901E-1,5.609999970E-2
4.522636325E0,9.817499667E-2,9.550749660E-1,5.926249921E-2
4.525170202E0,9.707500041E-2,9.326624870E-1,6.558749825E-2
4.527703743E0,9.391249716E-2,9.103875160E-1,6.875000149E-2
4.530237358E0,9.075000137E-2,8.944374919E-1,7.727500051E-2
4.532771126E0,8.648750186E-2,8.709250093E-1,8.057499677E-2
4.535304676E0,8.112499863E-2,8.464499712E-1,8.689999580E-2
4.537838289E0,7.576250285E-2,8.284375072E-1,9.006249905E-2
4.540372059E0,7.369999588E-2,8.082249761E-1,9.542500228E-2
4.542905676E0,6.943749636E-2,7.826499939E-1,9.968750179E-2
4.545439214E0,6.091250107E-2,7.581750154E-1,1.028499976E-1
4.547973059E0,5.458749831E-2,7.273749709E-1,1.050499976E-1
4.550506599E0,4.922499880E-2,6.964374781E-1,1.071124971E-1
4.553040366E0,3.959999979E-2,6.730625033E-1,1.060125008E-1
4.555573969E0,3.327500075E-2,6.369000077E-1,1.050499976E-1
4.558107507E0,2.901249938E-2,6.006000042E-1,1.028499976E-1
4.560641274E0,2.474999987E-2,5.612750053E-1,1.028499976E-1
4.563174892E0,1.938750036E-2,5.251125097E-1,9.652499855E-2
4.565708683E0,1.828750037E-2,4.910124838E-1,8.689999580E-2
4.568242224E0,1.086249948E-2,4.527874887E-1,8.373750001E-2
4.570775837E0,6.599999964E-3,4.197874963E-1,7.631249726E-2
4.573309606E0,3.437499981E-3,3.845874965E-1,6.875000149E-2
4.575843186E0,-6.187499966E-3,3.643749952E-1,6.778749824E-2
4.578377030E0,-1.141249947E-2,3.473249972E-1,6.132499874E-2
4.580910570E0,-1.361249946E-2,3.293125033E-1,5.816249922E-2
4.583444186E0,-1.567500085E-2,3.185875118E-1,5.499999970E-2
4.585977972E0,-1.471249945E-2,3.059374988E-1,4.963750020E-2
4.588511512E0,-1.897500083E-2,2.974124849E-1,4.537500069E-2
4.591045126E0,-2.309999987E-2,2.931500077E-1,4.427500069E-2
4.593578895E0,-2.736249939E-2,2.963125110E-1,4.001250118E-2
4.596112517E0,-3.066249937E-2,3.059374988E-1,4.001250118E-2
4.598646056E0,-3.272499889E-2,3.091000021E-1,3.478749841E-2
4.601179823E0,-3.162499890E-2,3.133625090E-1,3.588749841E-2
4.603713440E0,-3.162499890E-2,3.196874857E-1,3.795000166E-2
4.606247203E0,-3.492499888E-2,3.261500001E-1,3.795000166E-2
4.608780743E0,-3.698749840E-2,3.324750066E-1,4.111250117E-2
4.611314357E0,-3.588749841E-2,3.389374912E-1,4.331250116E-2
4.613848126E0,-3.588749841E-2,3.441624939E-1,4.427500069E-2
4.616381733E0,-3.588749841E-2,3.463625014E-1,4.647500068E-2
4.618915500E0,-3.698749840E-2,3.515875041E-1,4.757500067E-2
4.621449041E0,-3.588749841E-2,3.569499850E-1,4.963750020E-2
4.623982654E0,-3.918749839E-2,3.580499887E-1,4.853750020E-2
4.626516434E0,-4.015000165E-2,3.473249972E-1,5.279999971E-2
4.629049974E0,-4.015000165E-2,3.346749842E-1,4.963750020E-2
4.631583818E0,-4.441250116E-2,3.207874894E-1,4.331250116E-2
4.634117359E0,-4.867500067E-2,3.102000058E-1,4.427500069E-2
4.636650964E0,-5.183750018E-2,3.048374951E-1,3.795000166E-2
4.639184502E0,-5.513750017E-2,3.016749918E-1,2.736249939E-2
4.641718347E0,-6.036249921E-2,2.994749844E-1,2.516249940E-2
4.644251887E0,-6.366249919E-2,2.877874970E-1,2.199999988E-2
4.646785673E0,-6.888750196E-2,2.781625092E-1,2.199999988E-2
4.649319291E0,-7.315000147E-2,2.675749958E-1,2.089999989E-2
4.651853058E0,-7.631249726E-2,2.590500116E-1,1.773750037E-2
4.654386598E0,-8.813749999E-2,2.494249940E-1,1.347499993E-2
4.656920183E0,-8.387500048E-2,2.824249864E-1,7.149999961E-3
4.659453952E0,-1.050499976E-1,4.207499921E-1,1.787499990E-3
4.661987569E0,-1.445125043E-1,4.750624895E-1,-9.899999946E-3
4.664521337E0,-1.582625061E-1,4.505875111E-1,-2.062499896E-2
4.667054867E0,-1.434125006E-1,4.261125028E-1,-1.952499896E-2
4.669588481E0,-1.211374998E-1,3.942124844E-1,-3.574999981E-3
4.672122250E0,-1.135749966E-1,3.634124994E-1,2.406249940E-2
4.674655790E0,-1.146750003E-1,3.304125071E-1,5.926249921E-2
4.677189404E0,-1.168750003E-1,3.102000058E-1,8.373750001E-2
4.679723173E0,-1.263625026E-1,3.005749881E-1,9.116250277E-2
4.682256790E0,-1.178374961E-1,3.473249972E-1,7.095000148E-2
4.684790329E0,-1.104125008E-1,5.240125060E-1,4.949999973E-3
4.687324173E0,-1.391499937E-1,5.879499912E-1,-7.699999958E-2
4.689857713E0,-1.625249982E-1,5.154874921E-1,-1.322750002E-1
4.692391481E0,-1.519374996E-1,4.537499845E-1,-1.355749965E-1
4.694925098E0,-1.189374998E-1,4.144249856E-1,-8.662500232E-2
4.697440536E0,-9.762500226E-2,3.878875077E-1,-1.842499897E-2
4.699959087E0,-9.239999950E-2,3.239499927E-1,3.162499890E-2
4.702477638E0,-8.593750000E-2,2.814624906E-1,6.132499874E-2
4.705059788E0,-8.167500049E-2,2.675749958E-1,6.875000149E-2
4.707593329E0,-7.851249725E-2,2.579500079E-1,5.609999970E-2
4.710126944E0,-7.424999774E-2,2.590500116E-1,2.406249940E-2
4.712660703E0,-6.792499870E-2,2.644124925E-1,-1.209999993E-2
4.715194242E0,-6.036249921E-2,2.536875010E-1,-5.142499879E-2
4.717728088E0,-5.513750017E-2,2.419999987E-1,-7.590000331E-2
4.720261627E0,-4.867500067E-2,2.282499969E-1,-8.236250281E-2
4.722795228E0,-4.771250114E-2,2.123000026E-1,-7.479999959E-2
4.725328995E0,-5.087500066E-2,1.984124929E-1,-5.995000154E-2
4.727862613E0,-5.183750018E-2,1.876875013E-1,-3.437500075E-2
4.730396151E0,-5.609999970E-2,1.654125005E-1,-1.416249946E-2
4.732929875E0,-5.403750017E-2,1.463000029E-1,-4.674999975E-3
4.735463493E0,-4.441250116E-2,1.260875016E-1,-2.474999987E-3
4.737997031E0,-3.918749839E-2,1.036750004E-1,-8.937500417E-3
4.740530875E0,-3.698749840E-2,8.978749812E-2,-2.268750034E-2
4.743064406E0,-4.015000165E-2,7.067500055E-2,-3.973750025E-2
4.745598173E0,-4.551250115E-2,5.898749828E-2,-5.142499879E-2
4.748131790E0,-4.441250116E-2,4.303750023E-2,-6.104999781E-2
4.750665558E0,-4.867500067E-2,2.598750032E-2,-7.053750008E-2
4.753199117E0,-5.087500066E-2,2.598750032E-2,-7.273750007E-2
4.755732730E0,-5.609999970E-2,2.392499894E-2,-7.163749635E-2
4.758266500E0,-5.939999968E-2,1.319999993E-2,-6.627500057E-2
4.760800040E0,-6.256250292E-2,2.062499896E-2,-6.531249732E-2
4.763333644E0,-6.792499870E-2,2.282499894E-2,-6.311249733E-2
4.765867413E0,-7.315000147E-2,2.062499896E-2,-5.788749829E-2
4.768401030E0,-7.631249726E-2,1.746249944E-2,-5.362499878E-2
4.770934797E0,-7.851249725E-2,3.712499980E-3,-5.032499880E-2
4.773468353E0,-7.315000147E-2,-3.355000168E-2,-5.252499878E-2
4.776001966E0,-6.998749822E-2,-2.502499893E-2,-6.104999781E-2
4.778535736E0,-7.315000147E-2,-2.406249940E-2,-6.421250105E-2
4.781069353E0,-6.998749822E-2,-5.376249924E-2,-6.531249732E-2
4.783602900E0,-6.682500243E-2,-3.891250119E-2,-7.053750008E-2
4.786136668E0,-7.535000145E-2,1.966249943E-2,-6.737499684E-2
4.788670285E0,-1.040875018E-1,1.025749967E-1,-5.362499878E-2
4.791204052E0,-1.231999993E-1,1.335124969E-1,-4.289999977E-2
4.793737661E0,-1.200374961E-1,1.420374960E-1,-2.804999985E-2
4.796271428E0,-1.050499976E-1,1.346125007E-1,-2.268750034E-2
4.798804968E0,-9.129999578E-2,1.090374961E-1,-3.231250122E-2
4.801338582E0,-6.792499870E-2,1.005124971E-1,-4.399999976E-2
4.803872370E0,-5.939999968E-2,1.142624989E-1,-4.826249927E-2
4.806405910E0,-6.036249921E-2,1.111000031E-1,-4.716249928E-2
4.808939524E0,-6.462500244E-2,1.025749967E-1,-4.716249928E-2
4.811473293E0,-6.462500244E-2,7.809999585E-2,-5.458749831E-2
4.814006915E0,-6.036249921E-2,8.236250281E-2,-5.362499878E-2
4.816540683E0,-5.719999969E-2,6.104999781E-2,-4.936249927E-2
4.819074223E0,-3.918749839E-2,6.874999963E-3,-5.252499878E-2
4.821607837E0,-2.309999987E-2,-7.012499962E-3,-5.678749830E-2
4.824141625E0,-1.993750036E-2,2.612499986E-3,-5.678749830E-2
4.826675165E0,-2.736249939E-2,1.003750041E-2,-5.142499879E-2
4.829208779E0,-3.698749840E-2,2.282499894E-2,-3.973750025E-2
4.831742548E0,-4.344999790E-2,2.598750032E-2,-3.121249937E-2
4.834276147E0,-4.661250114E-2,3.987500072E-2,-2.584999986E-2
4.836809914E0,-4.235000163E-2,5.692499876E-2,-2.062499896E-2
4.839343455E0,-3.918749839E-2,8.346249908E-2,-1.416249946E-2
4.841877068E0,-4.235000163E-2,1.047749966E-1,-1.416249946E-2
4.844410809E0,-4.441250116E-2,1.153625026E-1,-1.952499896E-2
4.846944349E0,-4.867500067E-2,1.207249984E-1,-3.011249937E-2
4.849478193E0,-4.867500067E-2,1.099999994E-1,-4.289999977E-2
4.852011734E0,-4.661250114E-2,8.772499859E-2,-5.142499879E-2
4.854545334E0,-4.235000163E-2,7.177499682E-2,-5.788749829E-2
4.857078873E0,-4.235000163E-2,5.788749829E-2,-5.458749831E-2
4.859612717E0,-4.661250114E-2,3.561250120E-2,-4.936249927E-2
4.862146257E0,-5.183750018E-2,2.598750032E-2,-3.863750026E-2
4.864680015E0,-5.609999970E-2,3.135000169E-2,-3.121249937E-2
4.867213633E0,-6.256250292E-2,3.231250122E-2,-2.584999986E-2
4.869747400E0,-6.888750196E-2,3.341250122E-2,-2.584999986E-2
4.872280941E0,-7.108750194E-2,4.083750024E-2,-3.121249937E-2
4.874814558E0,-7.108750194E-2,3.561250120E-2,-4.289999977E-2
4.877348327E0,-6.998749822E-2,8.937500417E-3,-5.788749829E-2
4.879881945E0,-6.462500244E-2,-1.649999991E-3,-6.847500056E-2
4.882415712E0,-6.366249919E-2,7.837500423E-3,-7.479999959E-2
4.884949262E0,-6.682500243E-2,8.937500417E-3,-7.479999959E-2
4.887482876E0,-7.218749821E-2,8.937500417E-3,-6.847500056E-2
4.890016645E0,-7.631249726E-2,1.966249943E-2,-6.104999781E-2
4.892550185E0,-7.851249725E-2,2.392499894E-2,-5.362499878E-2
4.895083823E0,-8.167500049E-2,2.708750032E-2,-4.826249927E-2
4.897617592E0,-8.277499676E-2,2.914999984E-2,-4.826249927E-2
4.900151209E0,-8.277499676E-2,3.135000169E-2,-4.716249928E-2
4.902684748E0,-7.851249725E-2,3.877500072E-2,-4.509999976E-2
4.905218602E0,-7.741250098E-2,6.324999779E-2,-4.083750024E-2
4.907752142E0,-8.167500049E-2,1.207249984E-1,-3.121249937E-2
4.910285910E0,-8.813749999E-2,1.420374960E-1,-2.268750034E-2
4.912819527E0,-8.703749627E-2,1.590874940E-1,-1.209999993E-2
4.915353274E0,-8.387500048E-2,1.759999990E-1,-1.099999994E-2
4.917886815E0,-7.851249725E-2,1.887875050E-1,-1.209999993E-2
4.920420428E0,-7.108750194E-2,2.037750036E-1,-1.416249946E-2
4.922954197E0,-6.572499871E-2,2.282499969E-1,-1.842499897E-2
4.925487748E0,-6.572499871E-2,2.388374954E-1,-2.488750033E-2
4.928021592E0,-6.366249919E-2,2.419999987E-1,-2.914999984E-2
4.930555132E0,-5.829999968E-2,2.462625057E-1,-3.547500074E-2
4.933088748E0,-5.403750017E-2,2.441999912E-1,-3.657500073E-2
4.935622515E0,-5.183750018E-2,2.484624982E-1,-3.231250122E-2
4.938156056E0,-5.293750018E-2,2.536875010E-1,-2.584999986E-2
4.940689669E0,-5.087500066E-2,2.462625057E-1,-2.378750034E-2
4.943223438E0,-5.087500066E-2,2.345750034E-1,-2.378750034E-2
4.945757061E0,-4.661250114E-2,2.111999989E-1,-3.121249937E-2
4.948290599E0,-4.124999791E-2,1.792999953E-1,-4.179999977E-2
4.950824366E0,-3.918749839E-2,1.494625062E-1,-5.362499878E-2
4.953357984E0,-4.015000165E-2,1.196250021E-1,-6.627500057E-2
4.955891741E0,-3.698749840E-2,9.088750184E-2,-7.053750008E-2
4.958425358E0,-3.492499888E-2,6.531249732E-2,-6.847500056E-2
4.960958897E0,-3.588749841E-2,3.561250120E-2,-6.215000153E-2
4.963492664E0,-3.272499889E-2,5.774999969E-3,-5.995000154E-2
4.966026248E0,-3.066249937E-2,-2.722499892E-2,-5.678749830E-2
4.968560016E0,-2.736249939E-2,-5.279999971E-2,-5.252499878E-2
4.971093556E0,-2.213750035E-2,-8.470000327E-2,-5.142499879E-2
4.973627170E0,-1.897500083E-2,-9.432499856E-2,-4.936249927E-2
4.976160934E0,-1.897500083E-2,-1.176999956E-1,-4.509999976E-2
4.978694474E0,-1.567500085E-2,-1.432749927E-1,-4.179999977E-2
4.981228088E0,-1.141249947E-2,-1.549624950E-1,-3.657500073E-2
4.983761857E0,-6.187499966E-3,-1.634874940E-1,-3.011249937E-2
4.986295483E0,3.437499981E-3,-1.889249980E-1,-2.268750034E-2
4.988829250E0,1.086249948E-2,-2.091374993E-1,-1.209999993E-2
4.991362791E0,2.254999988E-2,-2.209624946E-1,-4.124999978E-4
4.993896404E0,3.107500076E-2,-2.241249979E-1,1.237499993E-2
4.996430179E0,3.643750027E-2,-2.102375031E-1,3.478749841E-2
4.998963796E0,3.959999979E-2,-1.931875050E-1,5.389999971E-2
5.001497563E0,4.702499881E-2,-2.176624984E-1,5.183750018E-2
5.004031181E0,5.238749832E-2,-2.124374956E-1,4.111250117E-2
5.006564748E0,4.179999977E-2,-1.803999990E-1,1.773750037E-2
5.009098515E0,5.128749833E-2,-2.219250053E-1,-1.099999994E-2
5.011632056E0,6.517499685E-2,-2.378749996E-1,-4.289999977E-2
5.014165900E0,6.297499686E-2,-2.070749998E-1,-6.847500056E-2
5.016699445E0,4.812499881E-2,-1.803999990E-1,-8.442500234E-2
5.019233061E0,4.922499880E-2,-2.091374993E-1,-8.978749812E-2
5.021766828E0,5.871250108E-2,-2.167000026E-1,-7.479999959E-2
5.024300368E0,7.150000334E-2,-2.070749998E-1,-4.716249928E-2
5.026833987E0,8.428750187E-2,-2.070749998E-1,-2.268750034E-2
5.029367756E0,9.707500041E-2,-1.964875013E-1,-5.637499969E-3
5.031901374E0,9.707500041E-2,-1.687124968E-1,-3.574999981E-3
5.034435141E0,9.501250088E-2,-1.421750039E-1,4.949999973E-3
5.036968690E0,9.391249716E-2,-1.165999994E-1,1.883750036E-2
5.039502304E0,9.171249717E-2,-9.528750181E-2,1.773750037E-2
5.042036073E0,8.964999765E-2,-9.638749808E-2,4.949999973E-3
5.044569690E0,9.597499669E-2,-9.528750181E-2,-4.124999978E-4
5.047103248E0,1.035374999E-1,-8.249999583E-2,-3.574999981E-3
5.049637015E0,1.076624990E-1,-8.786249906E-2,-1.636249945E-2
5.052170632E0,1.098624989E-1,-8.786249906E-2,-1.319999993E-2
5.054704400E0,1.098624989E-1,-4.207500070E-2,3.478749841E-2
5.057238017E0,1.076624990E-1,-1.759999990E-2,5.499999970E-2
5.059771555E0,1.024374962E-1,-2.749999985E-3,4.331250116E-2
5.062305323E0,9.391249716E-2,2.818750031E-2,3.052499890E-2
5.064838940E0,8.855000138E-2,9.308750182E-2,5.389999971E-2
