"Time (s)","Acceleration x (m/s^2)","Acceleration y (m/s^2)","Acceleration z (m/s^2)"
3.828142700E-2,-6.129000187E0,7.114050388E0,-3.151050091E0
4.081233800E-2,-6.142950058E0,7.168950558E0,-3.160050154E0
4.334610800E-2,-6.160050392E0,7.167000294E0,-3.181950092E0
4.587972300E-2,-6.205050468E0,7.167000294E0,-3.153000116E0
4.841349200E-2,-6.162000179E0,7.116000175E0,-3.178950071E0
5.094711700E-2,-6.106950283E0,7.060950279E0,-3.190950155E0
5.348088600E-2,-6.082950115E0,7.047000408E0,-3.193950176E0
5.601442600E-2,-6.031050205E0,6.985050201E0,-3.234000206E0
5.854827000E-2,-5.998950481E0,6.949050426E0,-3.253950119E0
6.108189300E-2,-5.961000443E0,6.937050343E0,-3.265950203E0
6.361543100E-2,-5.962950230E0,6.915000439E0,-3.261000156E0
6.614919800E-2,-5.932050228E0,6.895950317E0,-3.306000233E0
6.868281600E-2,-5.892000198E0,6.927000523E0,-3.310950041E0
7.121660700E-2,-5.875050068E0,6.913050175E0,-3.280050039E0
7.375022500E-2,-5.808000088E0,6.862050533E0,-3.292050123E0
7.628376300E-2,-5.764950275E0,6.858000278E0,-3.294000149E0
7.881753000E-2,-5.773950100E0,6.810000420E0,-3.313050270E0
8.135116700E-2,-5.748000145E0,6.829050541E0,-3.354000092E0
8.388493400E-2,-5.781000137E0,6.831000328E0,-3.409050226E0
8.641855100E-2,-5.781000137E0,6.811950207E0,-3.414000273E0
8.895231800E-2,-5.760000229E0,6.870000362E0,-3.405000210E0
9.148589700E-2,-5.701950073E0,6.843000412E0,-3.349050045E0
9.401966400E-2,-5.755050182E0,6.831000328E0,-3.342000246E0
9.655328100E-2,-5.712000370E0,6.822000504E0,-3.414000273E0
9.908682000E-2,-5.668950081E0,6.807000160E0,-3.393000126E0
1.016205820E-1,-5.647050381E0,6.747000217E0,-3.381000042E0
1.041542000E-1,-5.664000034E0,6.736050129E0,-3.397050142E0
1.066880440E-1,-5.686050415E0,6.769050121E0,-3.415950060E0
1.092215840E-1,-5.707050323E0,6.793050289E0,-3.409050226E0
1.117553420E-1,-5.743050098E0,6.790950298E0,-3.412050247E0
1.142889600E-1,-5.704950333E0,6.823950291E0,-3.409050226E0
1.168227270E-1,-5.686050415E0,6.838950157E0,-3.433050156E0
1.193563440E-1,-5.647050381E0,6.826950550E0,-3.424050093E0
1.218901260E-1,-5.595000267E0,6.805050373E0,-3.390000105E0
1.244236660E-1,-5.566050053E0,6.819000244E0,-3.394950151E0
1.269572800E-1,-5.571000099E0,6.798000336E0,-3.414000273E0
1.294910490E-1,-5.595000267E0,6.766950130E0,-3.373050213E0
1.320246850E-1,-5.614050388E0,6.799950123E0,-3.366000175E0
1.345584520E-1,-5.640000343E0,6.826950550E0,-3.334950209E0
1.370920700E-1,-5.626050472E0,6.835950375E0,-3.301950216E0
1.396256080E-1,-5.604000092E0,6.835950375E0,-3.309000254E0
1.421594910E-1,-5.635050297E0,6.865050316E0,-3.330000162E0
1.446930320E-1,-5.656950474E0,6.910050392E0,-3.301950216E0
1.472267990E-1,-5.719050407E0,6.937050343E0,-3.268050194E0
1.497604170E-1,-5.779050350E0,6.951000214E0,-3.265950203E0
1.522941980E-1,-5.829000473E0,6.964950562E0,-3.277950048E0
1.548278150E-1,-5.845950127E0,7.006050110E0,-3.289950132E0
1.573615820E-1,-5.853000164E0,6.976950169E0,-3.285000086E0
1.598952000E-1,-5.832000256E0,6.997050285E0,-3.280050039E0
1.624287620E-1,-5.809950352E0,7.018050194E0,-3.306000233E0
1.649626060E-1,-5.839050293E0,7.018050194E0,-3.253950119E0
1.674961470E-1,-5.913000107E0,7.044000149E0,-3.282000065E0
1.700299140E-1,-5.941950321E0,7.071000099E0,-3.318000078E0
1.725635460E-1,-5.952000141E0,7.087950230E0,-3.306000233E0
1.750973130E-1,-5.997000217E0,7.092000484E0,-3.334950209E0
1.776309300E-1,-6.043050289E0,7.102050304E0,-3.366000175E0
1.801646970E-1,-6.061950207E0,7.111950397E0,-3.424050093E0
1.826982330E-1,-6.031050205E0,7.096950531E0,-3.378000259E0
1.852318460E-1,-5.959050179E0,7.059000492E0,-3.394950151E0
1.877656150E-1,-5.901000500E0,7.068000317E0,-3.390000105E0
1.902992330E-1,-5.923050404E0,7.036950111E0,-3.402000189E0
1.928330100E-1,-5.875050068E0,7.030050278E0,-3.394950151E0
1.953666270E-1,-5.896050453E0,7.021050453E0,-3.358950138E0
1.979001660E-1,-5.941950321E0,7.075950146E0,-3.415950060E0
2.004340100E-1,-5.949000359E0,7.024950504E0,-3.376050234E0
2.029677980E-1,-5.908050060E0,7.006050110E0,-3.381000042E0
2.055013390E-1,-5.892000198E0,7.024950504E0,-3.357000113E0
2.080349540E-1,-5.851050377E0,6.997050285E0,-3.330000162E0
2.105687210E-1,-5.815050125E0,6.979950428E0,-3.346950054E0
2.131023490E-1,-5.856000423E0,6.958050251E0,-3.328050137E0
2.156361160E-1,-5.884050369E0,6.907950401E0,-3.361050129E0
2.181697330E-1,-5.856000423E0,6.922050476E0,-3.342000246E0
2.207035010E-1,-5.863050461E0,6.882000446E0,-3.345000267E0
2.232371320E-1,-5.836950302E0,6.915000439E0,-3.369000196E0
2.257708990E-1,-5.821950436E0,6.891000271E0,-3.370950222E0
2.283044400E-1,-5.797950268E0,6.886050224E0,-3.409050226E0
2.308380530E-1,-5.773950100E0,6.841050148E0,-3.397050142E0
2.333718270E-1,-5.740950108E0,6.886050224E0,-3.388050079E0
2.359054450E-1,-5.767050266E0,6.883950233E0,-3.376050234E0
2.384392120E-1,-5.808000088E0,6.915000439E0,-3.376050234E0
2.409728290E-1,-5.904000282E0,6.964950562E0,-3.369000196E0
2.435063490E-1,-6.022950172E0,7.003950119E0,-3.337050200E0
2.460401930E-1,-6.033000469E0,7.023000240E0,-3.361050129E0
2.485739620E-1,-6.040050507E0,7.030050278E0,-3.321000099E0
2.511075030E-1,-6.058950424E0,7.018050194E0,-3.304050207E0
2.536411130E-1,-6.090000153E0,7.059000492E0,-3.337050200E0
2.561748800E-1,-6.166950226E0,7.021050453E0,-3.388050079E0
2.587084980E-1,-6.154950142E0,7.009050369E0,-3.436050177E0
2.612422650E-1,-6.061950207E0,7.006050110E0,-3.493050098E0
2.637759010E-1,-5.956050396E0,6.931950092E0,-3.433050156E0
2.663094400E-1,-5.884050369E0,6.889050484E0,-3.438000202E0
2.688432070E-1,-5.851050377E0,6.870000362E0,-3.450000048E0
2.713770530E-1,-5.865000248E0,6.865050316E0,-3.438000202E0
2.739106130E-1,-5.935050488E0,6.826950550E0,-3.400050163E0
2.764442280E-1,-6.004050255E0,6.877050400E0,-3.388050079E0
2.789779950E-1,-6.004050255E0,6.886050224E0,-3.433050156E0
2.815116130E-1,-5.940000057E0,6.906000137E0,-3.415950060E0
2.840453710E-1,-5.839050293E0,6.903000355E0,-3.421050072E0
2.865789880E-1,-5.767050266E0,6.907950401E0,-3.474000216E0
2.891125270E-1,-5.674050331E0,6.871950150E0,-3.450000048E0
2.916462940E-1,-5.566050053E0,6.846000195E0,-3.498000145E0
2.941801540E-1,-5.604000092E0,6.841050148E0,-3.474000216E0
2.967136950E-1,-5.704950333E0,6.831000328E0,-3.378000259E0
2.992473100E-1,-5.761950493E0,6.858000278E0,-3.309000254E0
3.017810770E-1,-5.848950386E0,6.867000103E0,-3.270000219E0
3.043146760E-1,-5.916000366E0,6.891000271E0,-3.250950098E0
3.068484430E-1,-5.925000191E0,6.874050140E0,-3.196050167E0
3.093819830E-1,-5.899050236E0,6.931950092E0,-3.148050070E0
3.119155970E-1,-5.916000366E0,6.913050175E0,-3.069000244E0
3.144493610E-1,-5.916000366E0,6.910050392E0,-3.061950207E0
3.169829780E-1,-5.949000359E0,6.951000214E0,-3.093000174E0
3.195167460E-1,-5.947050095E0,6.943950176E0,-3.081000090E0
3.220503630E-1,-5.980050087E0,6.964950562E0,-3.081000090E0
3.245841350E-1,-6.009000301E0,6.931950092E0,-3.103050232E0
3.271176760E-1,-6.046950340E0,6.940950394E0,-3.079050064E0
3.296515200E-1,-6.076050282E0,6.988950253E0,-3.091050148E0
3.321850600E-1,-6.040050507E0,6.999000549E0,-3.040050030E0
3.347186560E-1,-6.009000301E0,6.994050503E0,-3.052050114E0
3.372524230E-1,-6.046950340E0,6.975000381E0,-3.093000174E0
3.397860400E-1,-6.106950283E0,6.994050503E0,-3.160050154E0
3.423198080E-1,-6.138000488E0,6.991950512E0,-3.172050238E0
3.448534250E-1,-6.142950058E0,6.979950428E0,-3.172050238E0
3.473869640E-1,-6.150000095E0,6.982050419E0,-3.160050154E0
3.499208080E-1,-6.094950199E0,6.955950260E0,-3.160050154E0
3.524545770E-1,-6.100050449E0,6.925050259E0,-3.121950150E0
3.549881370E-1,-6.031050205E0,6.919950485E0,-3.085950136E0
3.575217530E-1,-5.971050262E0,6.934050560E0,-3.100050211E0
3.600555200E-1,-5.937000275E0,6.903000355E0,-3.100050211E0
3.625891370E-1,-5.923050404E0,6.859950542E0,-3.091050148E0
3.651229140E-1,-5.913000107E0,6.853050232E0,-3.052050114E0
3.676565310E-1,-5.863050461E0,6.826950550E0,-3.091050148E0
3.701900700E-1,-5.833950043E0,6.814950466E0,-3.067050219E0
3.727238370E-1,-5.877000332E0,6.835950375E0,-3.069000244E0
3.752576740E-1,-5.881950378E0,6.823950291E0,-3.064050198E0
3.777912140E-1,-5.841000080E0,6.811950207E0,-3.072000027E0
3.803248300E-1,-5.808000088E0,6.829050541E0,-3.117000103E0
3.828585970E-1,-5.808000088E0,6.769050121E0,-3.109950066E0
3.853922140E-1,-5.707050323E0,6.745050430E0,-3.072000027E0
3.879259820E-1,-5.664000034E0,6.751950264E0,-3.076050043E0
3.904595990E-1,-5.631000042E0,6.751950264E0,-3.060000181E0
3.929933660E-1,-5.595000267E0,6.786000252E0,-3.052050114E0
3.955269020E-1,-5.560950279E0,6.838950157E0,-3.037950039E0
3.980605150E-1,-5.554050446E0,6.858000278E0,-3.001950026E0
4.005942840E-1,-5.508000374E0,6.889050484E0,-2.940000057E0
4.031279020E-1,-5.427000046E0,6.891000271E0,-2.848950148E0
4.056616830E-1,-5.365050316E0,6.915000439E0,-2.824950218E0
4.081953000E-1,-5.314050198E0,6.955950260E0,-2.784000158E0
4.107290680E-1,-5.250000477E0,6.997050285E0,-2.755050182E0
4.132626850E-1,-5.179950237E0,6.975000381E0,-2.650050163E0
4.157962370E-1,-5.092050076E0,7.018050194E0,-2.608950138E0
4.183300050E-1,-5.044050217E0,7.036950111E0,-2.538000107E0
4.208636220E-1,-4.977000237E0,7.012950420E0,-2.383949995E0
4.233973890E-1,-4.972050190E0,6.999000549E0,-2.410950184E0
4.259309930E-1,-4.969950199E0,6.951000214E0,-2.629050016E0
4.284647600E-1,-4.957950115E0,6.835950375E0,-2.655000210E0
4.309983510E-1,-4.960050106E0,6.738000393E0,-2.572950125E0
4.335319960E-1,-5.073000431E0,6.738000393E0,-2.743050098E0
4.361413460E-1,-5.218950272E0,6.750000477E0,-2.727000237E0
4.385992710E-1,-5.251950264E0,6.751950264E0,-2.557050228E0
4.411330390E-1,-5.319000244E0,6.775950432E0,-2.509050131E0
4.436666540E-1,-5.398050308E0,6.819000244E0,-2.596950054E0
4.462004280E-1,-5.512950420E0,6.823950291E0,-2.605050087E0
4.487340440E-1,-5.712000370E0,6.793050289E0,-2.770050049E0
4.512678130E-1,-5.944050312E0,6.745050430E0,-2.833950043E0
4.538014280E-1,-6.136050224E0,6.709050179E0,-2.896950245E0
4.563349690E-1,-6.178950310E0,6.688050270E0,-2.880000114E0
4.588688130E-1,-6.114000320E0,6.676050186E0,-2.880000114E0
4.614023530E-1,-5.974950314E0,6.751950264E0,-2.863050222E0
4.639361210E-1,-5.935050488E0,6.799950123E0,-2.928000212E0
4.664697380E-1,-6.016050339E0,6.819000244E0,-2.944950104E0
4.690035050E-1,-5.998950481E0,6.870000362E0,-2.869950056E0
4.715371230E-1,-5.884050369E0,6.903000355E0,-2.800950050E0
4.740708900E-1,-5.692950249E0,6.871950150E0,-2.707950115E0
4.766044870E-1,-5.554050446E0,6.774000168E0,-2.643000126E0
4.791380260E-1,-5.494050026E0,6.826950550E0,-2.698050022E0
4.816718700E-1,-5.508000374E0,6.865050316E0,-2.617050171E0
4.842054100E-1,-5.518050194E0,6.841050148E0,-2.617050171E0
4.867391580E-1,-5.512950420E0,6.793050289E0,-2.731950045E0
4.892727750E-1,-5.511000156E0,6.759000301E0,-2.854050159E0
4.918065420E-1,-5.599050045E0,6.690000534E0,-2.851050138E0
4.943401600E-1,-5.652000427E0,6.544050217E0,-2.811000109E0
4.968739230E-1,-5.580000401E0,6.364050388E0,-2.851050138E0
4.994074630E-1,-5.458050251E0,6.166050434E0,-3.000000238E0
5.019410770E-1,-5.238000393E0,5.799000263E0,-3.201000214E0
5.044748460E-1,-4.797000408E0,5.281950474E0,-3.618000269E0
5.070084770E-1,-4.414050102E0,4.750050068E0,-4.044000149E0
5.095422450E-1,-4.525950432E0,4.635000229E0,-4.019999981E0
5.120758620E-1,-5.085000038E0,4.936950207E0,-3.724950075E0
5.146094000E-1,-5.860050201E0,5.454000473E0,-3.445050240E0
5.171432160E-1,-6.778050423E0,5.995050430E0,-3.079050064E0
5.196769850E-1,-7.743000507E0,6.505950451E0,-2.887050152E0
5.222105250E-1,-8.707950592E0,7.083000183E0,-2.764950037E0
5.247441410E-1,-9.321000099E0,7.654950142E0,-2.632950068E0
5.272779760E-1,-9.511050224E0,7.930950165E0,-2.370000124E0
5.298115160E-1,-9.345000267E0,7.971000195E0,-2.130000114E0
5.323452840E-1,-8.887950897E0,7.813050270E0,-1.900050044E0
5.348789010E-1,-8.275050163E0,7.492050171E0,-1.837950110E0
5.374126440E-1,-7.498950481E0,7.068000317E0,-1.966950059E0
5.399462620E-1,-6.684000492E0,6.679950237E0,-2.248050213E0
5.424800290E-1,-6.028050423E0,6.273000240E0,-2.703000069E0
5.450135690E-1,-5.491950035E0,5.932950497E0,-3.184050083E0
5.475471830E-1,-5.161050320E0,5.689050198E0,-3.649050236E0
5.500809520E-1,-4.990950108E0,5.503950119E0,-4.032000065E0
5.526145690E-1,-4.881000042E0,5.404050350E0,-4.353000164E0
5.551483370E-1,-4.873950005E0,5.365950108E0,-4.657050133E0
5.576819630E-1,-4.941000462E0,5.445000172E0,-4.791000366E0
5.602157300E-1,-4.962000370E0,5.452050209E0,-4.813050270E0
5.627493480E-1,-5.046000004E0,5.445000172E0,-4.723950386E0
5.652831150E-1,-5.178000450E0,5.461050034E0,-4.473000050E0
5.678166990E-1,-5.341050148E0,5.503950119E0,-4.092000008E0
5.703502380E-1,-5.452950478E0,5.530950069E0,-3.856950283E0
5.728840050E-1,-5.572950363E0,5.539950371E0,-3.730050087E0
5.754176220E-1,-5.671050072E0,5.554950237E0,-3.582000256E0
5.779513750E-1,-5.728950500E0,5.526000500E0,-3.589050055E0
5.804849920E-1,-5.887050152E0,5.518950462E0,-3.607950211E0
5.830187590E-1,-5.983050346E0,5.497050285E0,-3.661050081E0
5.855523000E-1,-6.070950508E0,5.437050343E0,-3.673050165E0
5.880861200E-1,-6.208050251E0,5.398950100E0,-3.651000261E0
5.906197370E-1,-6.304050446E0,5.346000195E0,-3.649050236E0
5.931532760E-1,-6.382950306E0,5.326950073E0,-3.637050152E0
5.956870430E-1,-6.462000370E0,5.301000118E0,-3.724950075E0
5.982206890E-1,-6.466050148E0,5.299050331E0,-3.739950180E0
6.007544570E-1,-6.481050491E0,5.337000370E0,-3.735000134E0
6.032880740E-1,-6.583950520E0,5.373000145E0,-3.759000063E0
6.058218410E-1,-6.591000080E0,5.428050041E0,-3.751950264E0
6.083554350E-1,-6.814050198E0,5.433000088E0,-3.759000063E0
6.108892020E-1,-7.396050453E0,5.322000027E0,-3.642000198E0
6.134227420E-1,-7.768950462E0,5.092950344E0,-3.804000139E0
6.159565860E-1,-7.924950600E0,4.810050011E0,-4.171050072E0
6.184901410E-1,-7.887000561E0,4.864950180E0,-4.485000134E0
6.210237560E-1,-7.803000450E0,5.203050137E0,-4.729050159E0
6.235575240E-1,-7.543950558E0,5.416050434E0,-5.014050007E0
6.260911410E-1,-7.350000381E0,5.374950409E0,-5.227050304E0
6.286248990E-1,-7.333050251E0,5.326950073E0,-5.248950481E0
6.311585170E-1,-7.398000240E0,5.356050491E0,-5.179050446E0
6.336920550E-1,-7.410000324E0,5.404050350E0,-5.257950306E0
6.362258220E-1,-7.506000519E0,5.425050259E0,-5.232000351E0
6.387596930E-1,-7.539000511E0,5.413050175E0,-5.128950119E0
6.412933110E-1,-7.503000259E0,5.413050175E0,-5.158050060E0
6.438268490E-1,-7.381050587E0,5.445000172E0,-5.196000099E0
6.463606160E-1,-7.306950569E0,5.506950378E0,-5.257950306E0
6.488942290E-1,-7.144050121E0,5.515950203E0,-5.275050163E0
6.514279960E-1,-6.979050159E0,5.490000248E0,-5.337000370E0
6.539616140E-1,-6.952950478E0,5.550000191E0,-5.218050480E0
6.564953810E-1,-6.900000095E0,5.542950153E0,-4.951950073E0
6.590289450E-1,-6.814050198E0,5.545050144E0,-4.798050404E0
6.615625590E-1,-6.744000435E0,5.569050312E0,-4.630950451E0
6.640963280E-1,-6.660000324E0,5.614950180E0,-4.378950119E0
6.666299450E-1,-6.636000156E0,5.634000301E0,-4.393949986E0
6.691636970E-1,-6.684000492E0,5.629050255E0,-4.494000435E0
6.716973150E-1,-6.435000420E0,5.581050396E0,-4.687950134E0
6.742310820E-1,-6.286950111E0,5.502000332E0,-4.873050213E0
6.767646990E-1,-6.222000122E0,5.421000481E0,-5.016000271E0
6.792985010E-1,-6.121950150E0,5.272050381E0,-5.155050278E0
6.818321180E-1,-6.265050411E0,5.185950279E0,-5.188950062E0
6.843656570E-1,-6.354000092E0,5.116050243E0,-5.167050362E0
6.868994240E-1,-6.319950104E0,5.092950344E0,-5.230050087E0
6.894330410E-1,-6.379950523E0,5.016000271E0,-5.424000263E0
6.919668080E-1,-6.603000164E0,4.942050457E0,-5.598000050E0
6.945004260E-1,-6.771000385E0,4.882050037E0,-5.674950123E0
6.970341930E-1,-6.984000206E0,4.836000443E0,-5.754000187E0
6.995678430E-1,-7.186950207E0,4.858050346E0,-5.788050175E0
7.021016110E-1,-7.120050430E0,4.887000084E0,-5.725050449E0
7.046352280E-1,-7.068000317E0,4.992000103E0,-5.620050430E0
7.071689950E-1,-7.000950336E0,5.113950253E0,-5.449950218E0
7.097026230E-1,-6.877950191E0,5.212050438E0,-5.173950195E0
7.122361610E-1,-6.616950512E0,5.358000278E0,-4.861050129E0
7.147700050E-1,-6.385050297E0,5.469000340E0,-4.666950226E0
7.173035460E-1,-6.049950123E0,5.526000500E0,-4.456050396E0
7.198372890E-1,-5.913000107E0,5.605050087E0,-4.233000278E0
7.223709060E-1,-5.913000107E0,5.715000153E0,-4.180050373E0
7.249046740E-1,-5.784000397E0,5.710050106E0,-4.171050072E0
7.274382910E-1,-5.740950108E0,5.730000496E0,-4.111050129E0
7.299720960E-1,-5.844000340E0,5.662950039E0,-4.117949963E0
7.325057140E-1,-5.869950294E0,5.658000469E0,-4.264050007E0
7.350392520E-1,-5.781000137E0,5.659950256E0,-4.342950344E0
7.375730190E-1,-5.725950241E0,5.655000210E0,-4.537050247E0
7.401069050E-1,-5.520000458E0,5.674950123E0,-4.738950253E0
7.426404450E-1,-5.263950348E0,5.587950230E0,-5.035950184E0
7.451740600E-1,-4.978950024E0,5.605050087E0,-5.437950134E0
7.477078280E-1,-4.777950287E0,5.581050396E0,-5.742000103E0
7.502414880E-1,-4.591050148E0,5.574000359E0,-5.935950279E0
7.527752550E-1,-4.519050121E0,5.622000217E0,-5.902950287E0
7.553088730E-1,-4.464000225E0,5.674950123E0,-5.803950310E0
7.578426400E-1,-4.414050102E0,5.706000328E0,-5.779950142E0
7.603761610E-1,-4.450050354E0,5.778000355E0,-5.680050373E0
7.629097750E-1,-4.584000111E0,5.983050346E0,-5.481000423E0
7.654435440E-1,-4.665000439E0,6.091050148E0,-5.173950195E0
7.679771610E-1,-4.677000046E0,6.292050362E0,-4.858050346E0
7.705109530E-1,-4.632000446E0,6.520050526E0,-4.339050293E0
7.730445700E-1,-4.432950020E0,6.727950096E0,-3.850050211E0
7.755783370E-1,-4.234050274E0,7.018050194E0,-3.769050121E0
7.781119550E-1,-3.801000118E0,7.144950390E0,-3.736950159E0
7.806456780E-1,-3.135000229E0,7.440000534E0,-3.666000128E0
7.831792950E-1,-3.100950241E0,7.630950451E0,-3.796950102E0
7.857128340E-1,-3.157050133E0,7.473000526E0,-4.081950188E0
7.882466010E-1,-3.199950218E0,7.240950108E0,-4.366950035E0
7.907804520E-1,-3.351000071E0,6.934050560E0,-4.609050274E0
7.933139930E-1,-3.475050211E0,6.655950546E0,-4.918050289E0
7.958476080E-1,-3.703050137E0,6.265950203E0,-5.424000263E0
7.983813750E-1,-3.894000292E0,5.703000069E0,-6.039000511E0
8.009149780E-1,-4.479000092E0,5.053950310E0,-6.817050457E0
8.034487450E-1,-5.536950111E0,4.459950447E0,-7.135950565E0
8.059823620E-1,-6.718050480E0,4.180050373E0,-7.030950546E0
8.085161290E-1,-7.824000359E0,3.907050133E0,-7.147950172E0
8.110496840E-1,-8.311050415E0,3.567000151E0,-6.849000454E0
8.135832970E-1,-8.171999931E0,3.286950111E0,-6.475050449E0
8.161170670E-1,-7.234950542E0,3.658050060E0,-6.537000179E0
8.186506840E-1,-6.214950085E0,4.256999969E0,-7.074000359E0
8.211844370E-1,-5.407950401E0,4.663950443E0,-7.330050468E0
8.237180550E-1,-4.534049988E0,5.598000050E0,-7.102050304E0
8.262518220E-1,-4.117050171E0,6.538950443E0,-6.724050522E0
8.287854390E-1,-3.646950245E0,6.678000450E0,-6.705000401E0
8.313189870E-1,-3.331050158E0,6.666000366E0,-6.742950439E0
8.338528310E-1,-3.135000229E0,6.558000088E0,-6.757950306E0
8.363863710E-1,-2.971950054E0,6.316050529E0,-6.750000477E0
8.389201390E-1,-2.557950020E0,6.321000099E0,-6.670950413E0
8.414537230E-1,-2.377950191E0,6.177000523E0,-6.762000084E0
8.439874900E-1,-2.380950212E0,5.971950054E0,-6.898950100E0
8.465211080E-1,-2.512050152E0,5.871000290E0,-6.784050465E0
8.490548750E-1,-2.994000196E0,5.935950279E0,-6.525000095E0
8.515884720E-1,-3.667050123E0,6.361950397E0,-6.420000076E0
8.541222390E-1,-4.206000328E0,6.276000500E0,-5.740050316E0
8.566558570E-1,-4.543050289E0,5.992950439E0,-4.803000450E0
8.591896240E-1,-4.735050201E0,5.755950451E0,-5.661000252E0
8.617231560E-1,-4.620000362E0,5.497050285E0,-6.427050114E0
8.642567690E-1,-4.344000340E0,5.257950306E0,-6.741000175E0
8.667905380E-1,-4.083000183E0,5.089950085E0,-6.808050156E0
8.693241560E-1,-3.540000200E0,4.543950081E0,-6.838950157E0
8.718579000E-1,-3.439050198E0,3.112050056E0,-6.621000290E0
8.743915170E-1,-3.159000158E0,2.973000050E0,-5.686950207E0
8.769252840E-1,-2.557950020E0,3.499950171E0,-4.863000393E0
8.794589020E-1,-2.263050079E0,3.919050217E0,-4.975950241E0
8.819926920E-1,-2.026050091E0,4.209000111E0,-5.128950119E0
8.845263090E-1,-1.774950027E0,4.270950317E0,-5.236950397E0
8.870598480E-1,-1.729050040E0,4.531949997E0,-5.257950306E0
8.895936150E-1,-1.731000066E0,4.911000252E0,-5.236950397E0
8.921272290E-1,-1.741050124E0,5.169000149E0,-5.521950245E0
8.946609960E-1,-1.948950052E0,5.653050423E0,-5.596050262E0
8.971946130E-1,-2.455050230E0,6.058050156E0,-5.565000057E0
8.997283800E-1,-3.147000074E0,6.460050106E0,-5.815950394E0
9.022619830E-1,-3.757950068E0,6.795000553E0,-5.658000469E0
9.047957500E-1,-4.213050365E0,7.018050194E0,-5.481000423E0
9.073293670E-1,-4.584000111E0,7.131000519E0,-5.416050434E0
9.098631350E-1,-4.785000324E0,7.044000149E0,-5.443050385E0
9.123967470E-1,-4.891050339E0,7.423050404E0,-5.617950439E0
9.149302860E-1,-4.926000118E0,7.368000507E0,-5.899950504E0
9.174640530E-1,-5.176050186E0,7.204950333E0,-6.331050396E0
9.199976700E-1,-5.367000103E0,6.987000465E0,-6.415050507E0
9.225314700E-1,-5.176050186E0,6.417000294E0,-6.535050392E0
9.250650880E-1,-4.957950115E0,6.016950130E0,-6.766950130E0
9.275988550E-1,-4.639050007E0,5.851950169E0,-6.657000542E0
9.301323950E-1,-4.228950024E0,5.575950146E0,-6.460950375E0
9.326662350E-1,-3.882000208E0,5.353950024E0,-6.223050117E0
9.351998520E-1,-3.484950066E0,5.751000404E0,-5.842950344E0
9.377333900E-1,-3.171000242E0,6.358950138E0,-5.704050064E0
9.402671580E-1,-3.207000256E0,7.140000343E0,-5.842950344E0
9.428008000E-1,-3.621000290E0,7.888050556E0,-5.883000374E0
9.453345670E-1,-3.873000145E0,8.359050751E0,-5.934000492E0
9.478681850E-1,-4.300950050E0,8.866950035E0,-6.099000454E0
9.504019520E-1,-4.954950333E0,9.379950523E0,-6.027000427E0
9.529355730E-1,-5.463000298E0,1.006005001E1,-5.943000317E0
9.554693410E-1,-5.865000248E0,1.051500034E1,-5.943000317E0
9.580029580E-1,-6.282000065E0,1.034700012E1,-6.013050079E0
9.605364960E-1,-6.616950512E0,9.763050079E0,-5.830950260E0
9.630702400E-1,-6.807000160E0,9.006000519E0,-5.361000061E0
9.656038570E-1,-6.945000172E0,8.266050339E0,-4.963950157E0
9.681376240E-1,-7.065000534E0,7.609950542E0,-4.651950359E0
9.706712420E-1,-7.246950150E0,7.114050388E0,-4.401000023E0
9.732050190E-1,-7.369050503E0,6.715950489E0,-4.294950008E0
9.757386360E-1,-7.465050220E0,6.441000462E0,-4.345950127E0
9.782724040E-1,-7.384050369E0,6.252000332E0,-4.545000076E0
9.808059440E-1,-7.282950401E0,6.103050232E0,-4.846050262E0
9.833398070E-1,-7.077000141E0,6.108000278E0,-5.148000240E0
9.858734250E-1,-6.672000408E0,6.241950512E0,-5.308950424E0
9.884071920E-1,-6.214950085E0,6.369000435E0,-5.347050190E0
9.909407320E-1,-5.803050041E0,6.418950081E0,-5.485950470E0
9.934743270E-1,-5.808000088E0,6.016950130E0,-5.709000111E0
9.960080960E-1,-5.479950428E0,5.947950363E0,-5.907000065E0
9.985417130E-1,-4.438050270E0,4.812000275E0,-6.331050396E0
1.001075481E0,-4.155000210E0,3.418050051E0,-6.472950459E0
1.003609103E0,-4.504950047E0,3.802050114E0,-4.990050316E0
1.006142870E0,-4.309050083E0,4.230000019E0,-4.984950066E0
1.008676488E0,-4.026000023E0,4.663950443E0,-5.593950272E0
1.011210255E0,-3.805950165E0,5.157000065E0,-5.665050507E0
1.013743872E0,-3.456000090E0,5.730000496E0,-5.838000298E0
1.016277411E0,-3.256950140E0,6.496050358E0,-6.132000446E0
1.018811178E0,-3.351000071E0,7.171050549E0,-6.190050125E0
1.021344795E0,-3.331050158E0,7.765050411E0,-6.037050247E0
1.023878577E0,-3.295050144E0,8.053050041E0,-5.851950169E0
1.026412194E0,-3.493950129E0,8.496000290E0,-5.778000355E0
1.028945961E0,-3.685950279E0,8.965050697E0,-5.335050106E0
1.031479579E0,-3.793950081E0,9.214050293E0,-5.016000271E0
1.034013112E0,-3.789000273E0,9.195000648E0,-4.945050240E0
1.036546956E0,-4.157999992E0,9.163949966E0,-4.633050442E0
1.039080725E0,-4.479000092E0,9.042000771E0,-4.357950211E0
1.041614343E0,-4.491000175E0,8.664000511E0,-4.521000385E0
1.044147877E0,-4.668000221E0,8.119950294E0,-4.588050365E0
1.046681645E0,-4.882950306E0,7.473000526E0,-4.540050030E0
1.049215262E0,-4.984050274E0,6.955950260E0,-4.480050087E0
1.051749029E0,-4.965000153E0,6.577050209E0,-4.449000359E0
1.054282656E0,-4.881000042E0,6.331050396E0,-4.414950371E0
1.056816423E0,-4.837950230E0,6.252000332E0,-4.437000275E0
1.059350040E0,-4.663050175E0,5.497050285E0,-4.590000153E0
1.061883807E0,-4.966950417E0,3.118950129E0,-4.626000404E0
1.064417353E0,-5.668950081E0,3.747000217E0,-3.466950178E0
1.066951197E0,-5.476950169E0,4.708950043E0,-3.376050234E0
1.069484737E0,-5.536950111E0,5.101950169E0,-4.462950230E0
1.072018353E0,-5.532000065E0,5.554950237E0,-4.992000103E0
1.074552101E0,-5.494050026E0,5.778000355E0,-5.425950050E0
1.077085719E0,-5.548950195E0,5.778000355E0,-6.111000061E0
1.079619486E0,-5.443950176E0,6.040950298E0,-6.372000217E0
1.082153103E0,-5.266950130E0,6.151050091E0,-6.286050320E0
1.084686598E0,-5.077050209E0,6.142050266E0,-6.075000286E0
1.087220442E0,-4.960050106E0,6.142050266E0,-5.725050449E0
1.089754211E0,-5.166000366E0,6.421950340E0,-5.344050407E0
1.092287828E0,-5.487000465E0,6.544050217E0,-4.972950459E0
1.094821363E0,-5.643000126E0,6.694950104E0,-4.648050308E0
1.097355130E0,-5.571000099E0,7.027950287E0,-4.381950378E0
1.099888747E0,-5.680950165E0,7.320000172E0,-4.420050144E0
1.102422515E0,-5.740950108E0,7.341000557E0,-4.638000011E0
1.104956127E0,-5.800950050E0,7.258050442E0,-4.851000309E0
1.107489894E0,-5.868000507E0,7.083000183E0,-4.984950066E0
1.110023512E0,-6.043050289E0,6.951000214E0,-5.074050426E0
1.112557050E0,-6.522000313E0,6.685050488E0,-4.726950169E0
1.115090884E0,-6.742050171E0,6.486000538E0,-4.510950089E0
1.117624425E0,-6.418950081E0,6.205950260E0,-4.662000179E0
1.120158192E0,-6.241050243E0,6.201000214E0,-4.822050095E0
1.122691809E0,-5.677950382E0,6.034050465E0,-4.831950188E0
1.125225602E0,-5.470050335E0,6.010050297E0,-4.746000290E0
1.127759219E0,-5.343000412E0,6.297000408E0,-4.591950417E0
1.130292986E0,-5.008050442E0,6.538950443E0,-4.729050159E0
1.132826604E0,-4.736999989E0,6.448050499E0,-4.971000195E0
1.135360385E0,-4.332000256E0,6.379050255E0,-4.815000057E0
1.137893925E0,-3.970950127E0,6.514950275E0,-4.398000240E0
1.140427770E0,-3.762000084E0,6.736050129E0,-4.060950279E0
1.142961387E0,-3.637950182E0,6.946050167E0,-3.922050238E0
1.145495150E0,-3.604050159E0,7.092000484E0,-3.790050268E0
1.148028691E0,-3.588000059E0,7.276950359E0,-3.804000139E0
1.150562304E0,-3.588000059E0,7.465950489E0,-3.807000160E0
1.153096073E0,-3.561000109E0,7.420050144E0,-3.766050100E0
1.155629704E0,-3.679050207E0,7.605000496E0,-3.699000120E0
1.158163471E0,-3.796050072E0,7.396950245E0,-3.631950140E0
1.160697088E0,-3.991950274E0,7.806000233E0,-3.369000196E0
1.163230856E0,-4.207950115E0,7.876050472E0,-3.393000126E0
1.165764497E0,-4.525950432E0,7.507050514E0,-3.211050034E0
1.168298264E0,-4.881000042E0,7.021050453E0,-3.225000143E0
1.170831882E0,-5.359950066E0,6.835950375E0,-2.911050081E0
1.173365420E0,-5.152050018E0,7.399050236E0,-3.064050198E0
1.175899177E0,-5.407950401E0,7.327050209E0,-3.502950191E0
1.178432795E0,-5.868000507E0,6.982050419E0,-3.535950184E0
1.180966562E0,-6.037950516E0,6.654000282E0,-3.345000267E0
1.183500179E0,-5.860050201E0,6.843000412E0,-3.340050220E0
1.186033947E0,-5.875050068E0,7.593000412E0,-3.196050167E0
1.188567541E0,-5.905950069E0,7.690950394E0,-2.811000109E0
1.191101308E0,-5.836950302E0,7.786950588E0,-2.644950151E0
1.193634849E0,-5.722050190E0,7.830000401E0,-2.782050133E0
1.196168693E0,-5.416950226E0,7.777050495E0,-2.848950148E0
1.198702233E0,-5.116050243E0,7.452000141E0,-2.868000031E0
1.201235849E0,-5.413050175E0,7.641000271E0,-2.563950062E0
1.203769616E0,-5.286000252E0,7.923000336E0,-2.571000099E0
1.206303233E0,-4.977000237E0,8.006999969E0,-2.382000208E0
1.208836977E0,-4.879050255E0,7.969050407E0,-2.205000162E0
1.211370594E0,-4.876049995E0,8.070000648E0,-1.848000050E0
1.213904361E0,-4.876049995E0,8.035950661E0,-1.720950127E0
1.216437902E0,-4.869000435E0,7.978950500E0,-1.459950089E0
1.218971741E0,-4.800000191E0,8.065050125E0,-1.267950058E0
1.221505358E0,-4.837950230E0,8.083950043E0,-1.218000054E0
1.224038897E0,-4.888050079E0,8.059950829E0,-1.246950030E0
1.226572664E0,-4.831050396E0,8.152950287E0,-1.255950093E0
1.229106257E0,-4.603050232E0,8.460000038E0,-1.327950120E0
1.231640024E0,-4.003950119E0,8.974950790E0,-1.606050134E0
1.234173642E0,-3.703050137E0,9.514050484E0,-1.659000039E0
1.236707409E0,-3.705000162E0,9.492000580E0,-2.137950182E0
1.239241013E0,-3.565950155E0,9.114000320E0,-2.968950033E0
1.241774551E0,-3.532950163E0,8.728050232E0,-3.631950140E0
1.244308395E0,-3.609000206E0,8.424000740E0,-3.792000294E0
1.246841936E0,-3.849000216E0,8.235000610E0,-3.571950197E0
1.249375794E0,-4.315950394E0,8.227950096E0,-3.049950123E0
1.251909334E0,-5.014950275E0,8.395050049E0,-2.224050045E0
1.254443101E0,-5.928000450E0,8.560950279E0,-1.551000118E0
1.256976719E0,-6.948000431E0,8.722949982E0,-1.797000051E0
1.259510496E0,-7.815000534E0,8.821949959E0,-2.442000151E0
1.262044113E0,-8.356050491E0,8.800050735E0,-2.617050171E0
1.264577881E0,-8.707950592E0,8.743050575E0,-2.965950251E0
1.267111421E0,-8.986050606E0,8.704050064E0,-3.286950111E0
1.269645054E0,-9.031949997E0,8.710950851E0,-3.292050123E0
1.272178900E0,-8.926050186E0,8.749950409E0,-3.157950163E0
1.274712669E0,-8.743950844E0,8.776050568E0,-3.004950047E0
1.277246209E0,-8.775000572E0,8.889000893E0,-3.124050140E0
1.279779839E0,-8.979000092E0,9.004050255E0,-3.631950140E0
1.282313606E0,-9.204000473E0,9.070950508E0,-4.009950161E0
1.284847223E0,-9.015000343E0,9.054000854E0,-3.844950199E0
1.287380991E0,-8.895000458E0,9.126000404E0,-3.859950066E0
1.289914632E0,-8.899950027E0,9.127950668E0,-4.333950043E0
1.292448171E0,-8.751000404E0,9.103950500E0,-4.497000217E0
1.294982015E0,-8.337000847E0,9.111000061E0,-4.458000183E0
1.297515555E0,-7.819950581E0,9.115950584E0,-4.300050259E0
1.300049365E0,-7.305000305E0,9.073050499E0,-4.328999996E0
1.302582906E0,-6.735000134E0,9.063000679E0,-4.398000240E0
1.305116673E0,-6.129000187E0,9.063000679E0,-4.390950203E0
1.307650290E0,-5.536950111E0,9.154050827E0,-4.546950340E0
1.310184063E0,-5.154000282E0,9.328950882E0,-4.675950050E0
1.312717680E0,-4.917000294E0,9.396000862E0,-4.576050282E0
1.315251447E0,-4.660950184E0,9.448950768E0,-4.462950230E0
1.317785065E0,-4.399950027E0,9.327000618E0,-4.504050255E0
1.320318837E0,-4.218000412E0,9.268950462E0,-4.591950417E0
1.322852377E0,-4.006950378E0,9.142950058E0,-4.576050282E0
1.325386222E0,-3.786000252E0,9.025050163E0,-4.578000069E0
1.327919762E0,-3.457950115E0,8.881050110E0,-4.540050030E0
1.330453363E0,-3.121050119E0,8.698950768E0,-4.441950321E0
1.332987131E0,-2.596050024E0,8.533950806E0,-4.354950428E0
1.335520748E0,-1.995000124E0,8.296950340E0,-4.425000191E0
1.338054515E0,-1.353000045E0,7.987950325E0,-4.534950256E0
1.340588152E0,-6.990000606E-1,7.855950356E0,-4.671000004E0
1.343121919E0,-2.269500047E-1,7.807950497E0,-4.753050327E0
1.345655459E0,7.800000161E-2,7.792050362E0,-4.759950161E0
1.348189304E0,2.389500141E-1,7.930950165E0,-4.807950020E0
1.350722873E0,2.100000083E-1,8.194050789E0,-5.016000271E0
1.353256717E0,1.639500111E-1,8.242050171E0,-5.103000164E0
1.355790258E0,-1.950000064E-3,8.287050247E0,-5.104950428E0
1.358323873E0,-2.659500241E-1,8.368950844E0,-5.143050194E0
1.360857630E0,-5.839500427E-1,8.413949966E0,-5.134050369E0
1.363391248E0,-9.360000491E-1,8.419050217E0,-5.115000248E0
1.365925015E0,-1.276050091E0,8.371050835E0,-5.112000465E0
1.368458632E0,-1.642950058E0,8.335050583E0,-5.011950016E0
1.370992409E0,-2.047950029E0,8.263950348E0,-4.930050373E0
1.373526026E0,-2.335050106E0,8.263950348E0,-4.999950409E0
1.376059793E0,-2.500050068E0,8.338050842E0,-5.095050335E0
1.378593411E0,-2.560050011E0,8.364000320E0,-5.136000156E0
1.381126930E0,-2.622000217E0,8.395050049E0,-5.263050079E0
1.383660697E0,-2.737050056E0,8.428950310E0,-5.383050442E0
1.386194315E0,-2.740050077E0,8.458050728E0,-5.452050209E0
1.388728082E0,-2.803950071E0,8.443050385E0,-5.389950275E0
1.391261714E0,-2.875950098E0,8.428950310E0,-5.437950134E0
1.393795481E0,-2.970000029E0,8.428950310E0,-5.661000252E0
1.396329099E0,-3.019950151E0,8.437950134E0,-5.782950401E0
1.398862637E0,-3.100950241E0,8.367000580E0,-5.785050392E0
1.401396419E0,-3.268950224E0,8.203949928E0,-5.878950119E0
1.403930265E0,-3.465000153E0,7.963950157E0,-5.965050220E0
1.406463805E0,-3.717000246E0,7.720050335E0,-6.115950108E0
1.408997421E0,-3.940050125E0,7.477950573E0,-6.384000301E0
1.411531212E0,-3.910950184E0,7.363050461E0,-6.523050308E0
1.414064829E0,-3.772050142E0,7.288950443E0,-6.547050476E0
1.416598596E0,-3.595050097E0,7.264950275E0,-6.655050278E0
1.419132214E0,-3.385950089E0,7.252950191E0,-6.738000393E0
1.421665967E0,-3.133050203E0,7.303050518E0,-6.729000092E0
1.424199584E0,-2.962950230E0,7.392000198E0,-6.678000450E0
1.426733123E0,-2.803950071E0,7.477950573E0,-6.520050526E0
1.429266861E0,-2.761050224E0,7.525950432E0,-6.360000134E0
1.431800513E0,-2.656050205E0,7.396950245E0,-6.493950367E0
1.434334176E0,-2.581950188E0,7.198050499E0,-6.541950226E0
1.436867861E0,-2.826000214E0,7.180950165E0,-6.216000080E0
1.439401630E0,-3.094050169E0,7.284000397E0,-5.613000393E0
1.441935248E0,-3.168000221E0,7.416000366E0,-5.301000118E0
1.444469015E0,-3.351000071E0,7.606950283E0,-5.284950256E0
1.447002627E0,-3.436950207E0,7.714950562E0,-5.325000286E0
1.449536166E0,-3.499050140E0,7.873050213E0,-5.323050022E0
1.452069933E0,-3.616050243E0,7.902000427E0,-5.320950031E0
1.454603551E0,-3.697950125E0,7.915950298E0,-5.284950256E0
1.457137278E0,-3.753000259E0,7.899000168E0,-5.074050426E0
1.459670895E0,-3.789000273E0,7.894950390E0,-5.032950401E0
1.462204662E0,-3.994950294E0,7.665000439E0,-5.182050228E0
1.464738280E0,-4.525950432E0,7.552050591E0,-5.389950275E0
1.467272047E0,-4.845000267E0,7.504050255E0,-5.434950352E0
1.469805664E0,-5.395950317E0,7.509000301E0,-5.461950302E0
1.472339432E0,-6.505050182E0,7.642950535E0,-5.821050167E0
1.474872972E0,-8.694000244E0,8.176950455E0,-6.928050518E0
1.477406812E0,-8.956950188E0,8.092950821E0,-6.757950306E0
1.479940353E0,-8.143050194E0,7.801050186E0,-6.280950069E0
1.482473968E0,-7.108050346E0,7.531050205E0,-6.003000259E0
1.485007735E0,-6.069000244E0,7.327050209E0,-5.758950233E0
1.487541362E0,-5.287950039E0,7.155000210E0,-5.641050339E0
1.490075129E0,-4.633950233E0,6.997050285E0,-5.481000423E0
1.492608746E0,-4.249050140E0,6.898050308E0,-5.443050385E0
1.495142514E0,-3.970950127E0,6.712050438E0,-5.400000095E0
1.497676097E0,-3.817950249E0,6.544050217E0,-5.388000488E0
1.500209636E0,-3.658950090E0,6.406950474E0,-5.428050041E0
1.502743403E0,-3.619050264E0,6.240000248E0,-5.493000031E0
1.505277249E0,-3.540000200E0,6.121950150E0,-5.590950489E0
1.507810775E0,-3.657000065E0,6.052950382E0,-5.767950058E0
1.510344391E0,-3.789000273E0,6.028950214E0,-6.031950474E0
1.512878158E0,-3.868050098E0,6.022050381E0,-6.228000164E0
1.515411775E0,-3.949050188E0,6.010050297E0,-6.343050480E0
1.517945533E0,-4.003950119E0,6.072000504E0,-6.379050255E0
1.520479150E0,-3.985050201E0,6.168000221E0,-6.361950397E0
1.523012917E0,-3.946950197E0,6.232950211E0,-6.244950294E0
1.525546458E0,-3.942000151E0,6.264000416E0,-6.097050190E0
1.528080095E0,-3.862950087E0,6.285000324E0,-5.938050270E0
1.530613864E0,-3.801000118E0,6.252000332E0,-5.764050484E0
1.533147482E0,-3.766950130E0,6.247050285E0,-5.541000366E0
1.535681249E0,-3.718950272E0,6.277950287E0,-5.299050331E0
1.538214900E0,-3.633000135E0,6.237000465E0,-5.131050110E0
1.540748668E0,-3.583050251E0,6.345000267E0,-4.995000362E0
1.543282285E0,-3.516000271E0,6.445950508E0,-4.842000008E0
1.545816052E0,-3.501000166E0,6.625050545E0,-4.747950077E0
1.548349675E0,-3.559050083E0,6.750000477E0,-4.825050354E0
1.550883213E0,-3.628050089E0,6.742950439E0,-4.960950375E0
1.553416980E0,-3.754950285E0,6.670950413E0,-5.026050091E0
1.555950598E0,-3.853050232E0,6.715950489E0,-5.103000164E0
1.558484389E0,-3.918000221E0,6.771000385E0,-5.239050388E0
1.561018006E0,-3.892050266E0,6.841050148E0,-5.292000294E0
1.563551774E0,-3.774000168E0,6.834000111E0,-5.263050079E0
1.566085391E0,-3.604050159E0,6.822000504E0,-5.275050163E0
1.568619153E0,-3.385950089E0,6.762000084E0,-5.347050190E0
1.571152771E0,-3.228000164E0,6.666000366E0,-5.445000172E0
1.573686538E0,-3.130050182E0,6.589050293E0,-5.491050243E0
1.576220155E0,-3.180000067E0,6.694950104E0,-5.482950211E0
1.578753675E0,-3.391050100E0,6.811950207E0,-5.445000172E0
1.581287442E0,-3.523050070E0,6.879000187E0,-5.437950134E0
1.583821059E0,-3.753000259E0,6.913050175E0,-5.325000286E0
1.586354827E0,-3.967950106E0,7.003950119E0,-5.044950008E0
1.588888458E0,-4.167000294E0,7.003950119E0,-4.879950047E0
1.591422225E0,-4.330049992E0,7.123950481E0,-4.791000366E0
1.593955843E0,-4.558050156E0,7.404000282E0,-4.636050224E0
1.596489610E0,-4.677000046E0,7.540050507E0,-4.597050190E0
1.599023232E0,-4.792050362E0,7.593000412E0,-4.609050274E0
1.601556999E0,-4.924050331E0,7.786950588E0,-4.444050312E0
1.604090540E0,-4.950000286E0,7.761000156E0,-4.377000332E0
1.606624153E0,-4.891050339E0,7.645950317E0,-4.410000324E0
1.609157899E0,-4.764000416E0,7.512000561E0,-4.461000443E0
1.611691516E0,-4.603050232E0,7.126050472E0,-4.642950058E0
1.614225283E0,-4.408950329E0,6.706950188E0,-4.722000122E0
1.616758901E0,-4.416000366E0,6.240000248E0,-4.798050404E0
1.619292673E0,-4.620000362E0,5.863950253E0,-4.996950150E0
1.621826290E0,-4.471050262E0,5.638950348E0,-5.197950363E0
1.624360057E0,-4.263000011E0,5.641050339E0,-5.443050385E0
1.626893675E0,-4.090950012E0,5.590950489E0,-5.608050346E0
1.629427213E0,-3.978000164E0,5.302950382E0,-5.521950245E0
1.631960981E0,-3.613950253E0,4.627950191E0,-4.834050179E0
1.634494598E0,-2.947950125E0,4.621050358E0,-3.139050245E0
1.637028365E0,-2.686950207E0,4.891050339E0,-2.263950109E0
1.639561997E0,-2.554950237E0,5.017950058E0,-3.868950129E0
1.642095764E0,-3.097050190E0,5.569050312E0,-6.441000462E0
1.644629381E0,-3.943950176E0,6.264000416E0,-8.034000397E0
1.647163148E0,-4.594050407E0,6.682950497E0,-8.271000862E0
1.649696752E0,-5.005050182E0,6.810000420E0,-7.789950371E0
1.652230519E0,-5.202000141E0,6.826950550E0,-6.934950352E0
1.654764060E0,-5.167950153E0,6.783000469E0,-5.806950092E0
1.657297673E0,-5.029050350E0,6.819000244E0,-4.683000088E0
1.659831471E0,-4.837950230E0,6.930000305E0,-3.886050224E0
1.662365089E0,-4.749000072E0,7.132950306E0,-3.381000042E0
1.664898856E0,-4.633950233E0,7.519050121E0,-3.025950193E0
1.667432473E0,-4.633950233E0,7.828050137E0,-2.869950056E0
1.669966259E0,-4.588950157E0,8.017050743E0,-2.868000031E0
1.672499877E0,-4.486050129E0,7.840050220E0,-3.675000191E0
1.675033644E0,-4.528950214E0,6.918000221E0,-5.419050217E0
1.677567261E0,-4.402050018E0,5.703000069E0,-3.948000193E0
1.680100795E0,-4.462050438E0,5.358000278E0,-2.059050083E0
1.682634562E0,-4.741950035E0,5.998050213E0,-1.933950067E0
1.685168180E0,-4.800000191E0,6.652050495E0,-3.691950083E0
1.687701947E0,-4.699050426E0,7.231050491E0,-5.905050278E0
1.690235564E0,-4.764000416E0,7.569000244E0,-6.987000465E0
1.692769331E0,-5.247000217E0,7.669950485E0,-7.074000359E0
1.695302949E0,-5.686050415E0,7.789050579E0,-6.868050098E0
1.697836487E0,-5.974950314E0,7.830000401E0,-6.553950310E0
1.700370317E0,-6.061950207E0,7.861050606E0,-6.058050156E0
1.702904087E0,-5.952000141E0,7.758000374E0,-5.470950127E0
1.705437704E0,-5.808000088E0,7.545000553E0,-5.047050476E0
1.707971242E0,-5.656950474E0,7.425000191E0,-4.714950085E0
1.710504991E0,-5.338050365E0,7.231050491E0,-4.564050198E0
1.713038608E0,-5.089050293E0,7.126050472E0,-4.386000156E0
1.715572375E0,-4.810950279E0,6.958050251E0,-4.405950069E0
1.718105993E0,-4.663050175E0,6.952950478E0,-4.398000240E0
1.720639716E0,-4.513950348E0,6.907950401E0,-4.590000153E0
1.723173333E0,-4.507050037E0,6.847950459E0,-4.909050465E0
1.725707101E0,-4.512000084E0,6.823950291E0,-5.209950447E0
1.728240718E0,-4.528950214E0,6.829050541E0,-5.421000481E0
1.730774504E0,-4.519050121E0,6.810000420E0,-5.473950386E0
1.733308045E0,-4.390050411E0,6.700050354E0,-5.368050098E0
1.735841658E0,-4.251000404E0,6.537000179E0,-5.388000488E0
1.738375427E0,-4.062000275E0,6.405000210E0,-5.413950443E0
1.740909021E0,-3.822000265E0,6.343050480E0,-5.305950165E0
1.743442788E0,-3.472950220E0,6.240000248E0,-5.316000462E0
1.745976405E0,-3.195000172E0,6.112950325E0,-5.407050133E0
1.748510173E0,-2.970000029E0,5.955000401E0,-5.518950462E0
1.751043785E0,-2.800050020E0,5.842050076E0,-5.670000076E0
1.753577552E0,-2.766000032E0,5.815950394E0,-5.731950283E0
1.756111170E0,-2.814000130E0,5.806050301E0,-5.863950253E0
1.758644708E0,-2.923950195E0,5.866050243E0,-5.947950363E0
1.761178466E0,-3.091950178E0,5.887950420E0,-5.914050102E0
1.763712312E0,-3.226050138E0,5.884950161E0,-5.955000401E0
1.766245853E0,-3.388950109E0,5.908950329E0,-5.895000458E0
1.768779468E0,-3.616050243E0,5.986050129E0,-5.851950169E0
1.771313265E0,-3.729000092E0,6.027000427E0,-5.839950085E0
1.773846882E0,-3.921000242E0,6.060000420E0,-5.874000072E0
1.776380649E0,-4.167000294E0,6.034050465E0,-5.823000431E0
1.778914267E0,-4.432950020E0,6.058050156E0,-5.914050102E0
1.781448039E0,-4.677000046E0,6.160950184E0,-5.995950222E0
1.783981579E0,-4.834950447E0,6.358950138E0,-6.124950409E0
1.786515193E0,-4.882950306E0,6.646950245E0,-6.103950500E0
1.789048962E0,-4.776000023E0,6.874050140E0,-5.958000183E0
1.791582578E0,-4.594050407E0,7.066050529E0,-5.589000225E0
1.794116346E0,-4.867050171E0,7.465950489E0,-5.272950172E0
1.796649963E0,-6.819000244E0,8.617950439E0,-4.786050320E0
1.799183730E0,-7.804950237E0,8.710950851E0,-4.084949970E0
1.801717324E0,-6.138000488E0,8.155950546E0,-3.979050159E0
1.804251091E0,-4.213050365E0,6.823950291E0,-5.230050087E0
1.806784708E0,-2.460000038E0,5.878050327E0,-5.694000244E0
1.809318247E0,-2.266050100E0,5.947950363E0,-6.741000175E0
1.811852024E0,-1.540050030E0,6.046050072E0,-7.030950546E0
1.814385641E0,-1.782000065E0,5.995050430E0,-6.477000237E0
1.816919409E0,-1.963950038E0,5.851950169E0,-6.088950157E0
1.819453026E0,-2.622000217E0,5.767950058E0,-5.658000469E0
1.821986812E0,-3.472950220E0,5.701050282E0,-5.545950413E0
1.824520430E0,-3.933000088E0,5.695950508E0,-5.518950462E0
1.827053968E0,-4.227000237E0,5.710050106E0,-5.680050373E0
1.829587812E0,-4.311000347E0,5.851950169E0,-5.931000233E0
1.832121567E0,-4.157999992E0,6.040950298E0,-6.171000481E0
1.834655185E0,-3.909000158E0,6.217950344E0,-6.252000332E0
1.837188723E0,-3.700050116E0,6.424050331E0,-6.271050453E0
1.839722490E0,-3.529950142E0,6.625050545E0,-6.232950211E0
1.842256098E0,-3.472950220E0,6.700050354E0,-6.097050190E0
1.844789865E0,-3.430050135E0,6.715950489E0,-5.907000065E0
1.847323483E0,-3.420000076E0,6.742950439E0,-5.731950283E0
1.849857250E0,-3.547050238E0,6.738000393E0,-5.577000141E0
1.852390877E0,-3.745950222E0,6.775950432E0,-5.368050098E0
1.854924644E0,-3.916050196E0,6.879000187E0,-5.167050362E0
1.857458262E0,-4.027950287E0,6.907950401E0,-4.995000362E0
1.859992029E0,-4.267950058E0,6.991950512E0,-4.899000168E0
1.862525583E0,-4.528950214E0,7.123950481E0,-4.818000317E0
1.865059197E0,-4.608000278E0,7.179000378E0,-4.923000336E0
1.867592966E0,-4.644000053E0,7.156950474E0,-5.067000389E0
1.870126583E0,-4.549950123E0,7.167000294E0,-5.409000397E0
1.872660380E0,-4.360949993E0,7.066050529E0,-5.689050198E0
1.875193997E0,-4.153050423E0,7.006050110E0,-5.883000374E0
1.877727764E0,-3.862950087E0,6.951000214E0,-5.970000267E0
1.880261382E0,-3.556050062E0,6.858000278E0,-6.075000286E0
1.882795192E0,-3.228000164E0,6.859950542E0,-6.058050156E0
1.885328809E0,-3.099000216E0,6.751950264E0,-6.064950466E0
1.887862348E0,-2.895000219E0,6.580050468E0,-5.851950169E0
1.890396115E0,-2.563050032E0,6.369000435E0,-5.779950142E0
1.892929737E0,-1.779000044E0,6.151050091E0,-5.785050392E0
1.895463505E0,-1.617000103E0,5.971950054E0,-5.788050175E0
1.897997122E0,-1.312050104E0,6.003000259E0,-5.697000504E0
1.900530889E0,-1.116000056E0,6.063000202E0,-5.557950497E0
1.903064536E0,-8.530500531E-1,6.319050312E0,-5.494950294E0
1.905598303E0,-9.480000734E-1,6.550950527E0,-5.299050331E0
1.908131920E0,-1.633050084E0,6.168000221E0,-5.349000454E0
1.910665688E0,-1.138050079E0,5.962050438E0,-5.661000252E0
1.913199295E0,-8.089500666E-1,6.072000504E0,-5.644050121E0
1.915732833E0,-8.260500431E-1,6.193950176E0,-5.644050121E0
1.918266601E0,-7.969500422E-1,6.514950275E0,-5.530950069E0
1.920800218E0,-1.138050079E0,6.967950344E0,-5.332050323E0
1.923334023E0,-2.527050018E0,7.258050442E0,-5.215050220E0
1.925867641E0,-3.034050226E0,7.321950436E0,-5.356050491E0
1.928401408E0,-3.949050188E0,7.240950108E0,-5.349000454E0
1.930934948E0,-4.240950108E0,6.976950169E0,-5.613000393E0
1.933468798E0,-3.499050140E0,6.529950142E0,-6.034050465E0
1.936002415E0,-2.989050150E0,6.213000298E0,-6.520050526E0
1.938536182E0,-2.553000212E0,5.950050354E0,-6.814950466E0
1.941069723E0,-2.272950172E0,5.725050449E0,-6.697950363E0
1.943603361E0,-1.954050064E0,5.647950172E0,-6.504000187E0
1.946137130E0,-1.765050054E0,5.599950314E0,-6.256950378E0
1.948670748E0,-1.602000117E0,5.590950489E0,-5.854950428E0
1.951204515E0,-1.530000091E0,5.611950397E0,-5.541000366E0
1.953738161E0,-1.600050092E0,5.821050167E0,-5.332050323E0
1.956271929E0,-1.774950027E0,6.132000446E0,-5.227050304E0
1.958805546E0,-2.122050047E0,6.520050526E0,-5.239050388E0
1.961339084E0,-2.515050173E0,6.862050533E0,-5.232000351E0
1.963872944E0,-2.509950161E0,7.066050529E0,-5.221950054E0
1.966406484E0,-2.718000174E0,7.380000114E0,-5.188950062E0
1.968940251E0,-3.307050228E0,7.686000347E0,-5.038050175E0
1.971473869E0,-3.748050213E0,7.758000374E0,-5.007000446E0
1.974007717E0,-3.970950127E0,7.858950138E0,-5.164950371E0
1.976541257E0,-4.300950050E0,7.861050606E0,-5.197950363E0
1.979075025E0,-4.603050232E0,7.701000214E0,-5.182050228E0
1.981608642E0,-4.699050426E0,7.537950516E0,-5.184000015E0
1.984142161E0,-4.732050419E0,7.473000526E0,-5.227050304E0
1.986676006E0,-4.822950363E0,7.380000114E0,-5.320950031E0
1.989209775E0,-4.870950222E0,7.288950443E0,-5.419050217E0
1.991743392E0,-4.810950279E0,7.200000286E0,-5.469000340E0
1.994276931E0,-4.693950176E0,7.066050529E0,-5.506950378E0
1.996810679E0,-4.633950233E0,6.874050140E0,-5.548050404E0
1.999344296E0,-4.513950348E0,6.664050102E0,-5.566950321E0
2.001878063E0,-4.549950123E0,6.775950432E0,-5.716050148E0
2.004411681E0,-4.644000053E0,6.807000160E0,-5.788050175E0
2.006945448E0,-4.476000309E0,6.774000168E0,-5.776050091E0
2.009479066E0,-4.644000053E0,6.747000217E0,-5.874000072E0
2.012012833E0,-4.368000031E0,6.609000206E0,-5.854950428E0
2.014546373E0,-4.081050396E0,6.520050526E0,-5.886000156E0
2.017080193E0,-3.861000299E0,6.544050217E0,-5.722950459E0
2.019613734E0,-3.252000093E0,6.582000256E0,-5.413950443E0
2.022147349E0,-3.157050133E0,6.802950382E0,-4.903950214E0
2.024681116E0,-3.850950241E0,7.231050491E0,-4.794000149E0
2.027214729E0,-3.889050245E0,7.260000229E0,-5.251050472E0
2.029748496E0,-4.210050106E0,7.195050240E0,-5.788050175E0
2.032282113E0,-4.689000130E0,7.249950409E0,-5.770950317E0
2.034815881E0,-4.888050079E0,7.294050217E0,-5.545950413E0
2.037349488E0,-5.086950302E0,7.231050491E0,-5.494950294E0
2.039883255E0,-5.389050484E0,7.138050556E0,-5.677050114E0
2.042416873E0,-5.688000202E0,6.943950176E0,-5.761050224E0
2.044950640E0,-6.033000469E0,6.906000137E0,-5.758950233E0
2.047484175E0,-6.367950439E0,6.679950237E0,-5.791950226E0
2.050017789E0,-6.603000164E0,6.501000404E0,-5.779950142E0
2.052551558E0,-6.955050468E0,6.513000488E0,-5.979000092E0
2.055085175E0,-7.213950157E0,6.517950535E0,-6.271050453E0
2.057618939E0,-7.252050400E0,6.412050247E0,-6.384000301E0
2.060152556E0,-7.261950493E0,6.427050114E0,-6.529950142E0
2.062686323E0,-7.326000214E0,6.312000275E0,-6.541950226E0
2.065219941E0,-7.321050167E0,6.268050194E0,-6.676050186E0
2.067753693E0,-7.372050285E0,6.367050171E0,-6.784050465E0
2.070287310E0,-7.222950459E0,6.367050171E0,-6.789000511E0
2.072820849E0,-7.173000336E0,6.379050255E0,-6.628050327E0
2.075354616E0,-6.886050224E0,6.415050507E0,-6.396000385E0
2.077888243E0,-6.268050194E0,6.574950218E0,-6.231000423E0
2.080422011E0,-5.455950260E0,7.023000240E0,-6.139950275E0
2.082955628E0,-4.440000057E0,7.309950352E0,-5.881050110E0
2.085489395E0,-3.568050146E0,7.485000134E0,-5.632050037E0
2.088022979E0,-2.875950098E0,7.609950542E0,-5.512050152E0
2.090556746E0,-2.160000086E0,7.705050468E0,-5.400000095E0
2.093090363E0,-1.660050035E0,7.777050495E0,-5.241000175E0
2.095624131E0,-1.837050080E0,7.324950218E0,-4.954050064E0
2.098157642E0,-1.851000071E0,7.594950199E0,-4.846050262E0
2.100691255E0,-1.771950126E0,7.756050587E0,-4.650000095E0
2.103225025E0,-1.954050064E0,7.540050507E0,-4.711950302E0
2.105758642E0,-2.497950077E0,7.180950165E0,-4.729050159E0
2.108292384E0,-3.910950184E0,6.520050526E0,-4.755000114E0
2.110826002E0,-4.536000252E0,7.200000286E0,-5.143050194E0
2.113359769E0,-4.227000237E0,7.831950188E0,-5.464050293E0
2.115893386E0,-4.287000179E0,7.648050308E0,-6.076950073E0
2.118427145E0,-5.250000477E0,7.545000553E0,-6.717000484E0
2.120960762E0,-5.451000214E0,8.251950264E0,-7.110000134E0
2.123494300E0,-5.461050034E0,8.473950386E0,-6.805050373E0
2.126028068E0,-4.761000156E0,8.239950180E0,-6.319050312E0
2.128561665E0,-5.250000477E0,7.321950436E0,-5.697000504E0
2.131095432E0,-6.094950199E0,6.558000088E0,-5.413950443E0
2.133629050E0,-5.805000305E0,6.382950306E0,-5.287050247E0
2.136162817E0,-4.938000202E0,6.349950314E0,-5.335050106E0
2.138696420E0,-3.973050117E0,6.304050446E0,-5.227050304E0
2.141230188E0,-4.741950035E0,5.052000046E0,-5.340000153E0
2.143763805E0,-4.941000462E0,4.864950180E0,-5.716050148E0
2.146297572E0,-4.383000374E0,5.500050068E0,-6.175950527E0
2.148831093E0,-3.825000286E0,5.167050362E0,-6.108000278E0
2.151364706E0,-4.234050274E0,5.242950439E0,-6.994950294E0
2.153898475E0,-3.838950157E0,5.947950363E0,-7.087950230E0
2.156432093E0,-3.424950123E0,6.082050323E0,-6.877050400E0
2.158965870E0,-3.789000273E0,6.136950493E0,-7.189050198E0
2.161499487E0,-4.468950272E0,6.204000473E0,-6.796050549E0
2.164033254E0,-4.153050423E0,7.128000259E0,-6.573000431E0
2.166566795E0,-4.323000431E0,6.901050091E0,-6.331050396E0
2.169100663E0,-3.810000181E0,7.689000130E0,-6.489000320E0
2.171634281E0,-5.298000336E0,7.176000118E0,-6.067950249E0
2.174168048E0,-5.635050297E0,7.660050392E0,-5.854950428E0
2.176701588E0,-6.114000320E0,7.405950546E0,-5.734950066E0
2.179235212E0,-5.737950325E0,7.756050587E0,-5.869050503E0
2.181768981E0,-6.715950489E0,7.356000423E0,-5.203050137E0
2.184302598E0,-5.809950352E0,7.902000427E0,-5.209950447E0
2.186836365E0,-4.135950089E0,7.758000374E0,-5.136000156E0
2.189369968E0,-5.428950310E0,7.171050549E0,-5.470950127E0
2.191903735E0,-4.014000416E0,7.344000340E0,-5.602950096E0
2.194437352E0,-5.254950047E0,6.634950161E0,-5.485950470E0
2.196971120E0,-4.972050190E0,7.309950352E0,-5.710950375E0
2.199504713E0,-2.958000183E0,7.429950237E0,-5.589000225E0
2.202038252E0,-3.094050169E0,7.452000141E0,-5.919000149E0
2.204572019E0,-5.680950165E0,6.136950493E0,-6.322050095E0
2.207105636E0,-5.602050304E0,6.556050301E0,-6.634950161E0
2.209639389E0,-6.174000263E0,6.462000370E0,-6.001050472E0
2.212173007E0,-5.532000065E0,7.180950165E0,-5.946000099E0
2.214706774E0,-3.829950094E0,7.509000301E0,-6.112950325E0
2.217240391E0,-4.207950115E0,7.285950184E0,-6.319050312E0
2.219774145E0,-6.802050114E0,6.285000324E0,-6.520050526E0
2.222307762E0,-7.104000568E0,6.343050480E0,-6.525000095E0
2.224841529E0,-5.901000500E0,7.030050278E0,-6.079950333E0
2.227375070E0,-4.069050312E0,7.404000282E0,-5.838000298E0
2.229908697E0,-3.705000162E0,7.393950462E0,-6.051000118E0
2.232442466E0,-3.583050251E0,7.248000145E0,-6.232950211E0
2.234976084E0,-4.206000328E0,6.781050205E0,-6.091950417E0
2.237509851E0,-7.573050499E0,5.863950253E0,-5.943000317E0
2.240043459E0,-7.819950581E0,5.799000263E0,-5.284950256E0
2.242577227E0,-5.158950329E0,6.538950443E0,-5.227050304E0
2.245110844E0,-1.680000126E-1,6.601050377E0,-4.894050121E0
2.247644383E0,4.759500325E-1,6.919950485E0,-4.681050301E0
2.250178231E0,8.760000467E-1,7.138050556E0,-5.224950314E0
2.252712000E0,1.999500096E-1,7.308000565E0,-5.557950497E0
2.255245540E0,-1.618950129E0,7.348950386E0,-5.562000275E0
2.257779156E0,-3.964050293E0,7.273950577E0,-5.589000225E0
2.260312952E0,-5.743050098E0,7.147050381E0,-5.557950497E0
2.262846569E0,-6.402000427E0,7.143000126E0,-5.509950161E0
2.265380337E0,-6.102000237E0,7.156950474E0,-5.608050346E0
2.267913954E0,-5.434050083E0,7.162050247E0,-5.608050346E0
2.270447746E0,-4.689000130E0,7.056000233E0,-5.457000256E0
2.272981364E0,-4.300950050E0,6.826950550E0,-5.397000313E0
2.275515131E0,-3.952050209E0,6.574950218E0,-5.419050217E0
2.278048671E0,-3.748050213E0,6.331050396E0,-5.553000450E0
2.280582294E0,-3.619050264E0,6.103050232E0,-5.638950348E0
2.283116063E0,-4.131000042E0,5.035050392E0,-5.625000477E0
2.285649680E0,-6.481050491E0,4.912950039E0,-5.890950203E0
2.288183448E0,-3.991950274E0,5.533050060E0,-6.232950211E0
2.290717080E0,-4.335000038E0,5.679000378E0,-6.481950283E0
2.293250847E0,-3.750000238E0,6.120000362E0,-6.736050129E0
2.295784388E0,-2.802000046E0,6.537000179E0,-7.195950508E0
2.298318001E0,-2.950950146E0,6.759000301E0,-7.159950256E0
2.300851846E0,-3.304950237E0,6.879000187E0,-6.597000122E0
2.303385616E0,-3.243000269E0,6.975000381E0,-6.267000198E0
2.305919156E0,-3.468000174E0,7.140000343E0,-5.743950367E0
2.308452771E0,-3.573000193E0,7.272000313E0,-5.389950275E0
2.310986564E0,-3.769950151E0,7.303050518E0,-5.116950035E0
2.313520181E0,-4.069050312E0,7.252950191E0,-4.951950073E0
2.316053948E0,-4.147950172E0,7.024950504E0,-4.842000008E0
2.318587566E0,-5.884050369E0,6.043050289E0,-4.759950161E0
2.321121352E0,-7.374000549E0,5.650950432E0,-4.657050133E0
2.323654969E0,-5.095950127E0,6.019050121E0,-5.341950417E0
2.326188736E0,-5.470050335E0,5.940000057E0,-6.010050297E0
2.328722354E0,-3.015000105E0,6.067050457E0,-6.586950302E0
2.331256106E0,-1.807950139E0,6.168000221E0,-6.316950321E0
2.333789647E0,-1.663950086E0,6.103050232E0,-5.814000130E0
2.336323260E0,-1.570950031E0,6.073950291E0,-5.164950371E0
2.338857029E0,-2.104950190E0,6.048000336E0,-4.669050217E0
2.341390657E0,-3.027000189E0,6.100950241E0,-4.669050217E0
2.343924424E0,-4.157999992E0,6.091050148E0,-4.798050404E0
2.346458041E0,-5.010000229E0,5.899950504E0,-4.867950439E0
2.348991808E0,-6.711000443E0,5.131050110E0,-5.080950260E0
2.351525320E0,-5.640000343E0,4.876950264E0,-5.742000103E0
2.354059164E0,-3.468000174E0,5.224050045E0,-5.974050522E0
2.356592781E0,-3.066000223E0,5.203050137E0,-6.255000114E0
2.359126320E0,-2.746950150E0,5.185950279E0,-6.412950516E0
2.361660102E0,-3.100950241E0,5.296050072E0,-6.259050369E0
2.364193720E0,-3.544950247E0,5.518950462E0,-6.031950474E0
2.366727487E0,-4.027950287E0,5.572050095E0,-5.871000290E0
2.369261104E0,-4.122000217E0,5.536050320E0,-5.826000214E0
2.371794870E0,-4.368000031E0,5.461050034E0,-5.803950310E0
2.374328488E0,-4.468950272E0,5.478000164E0,-5.746950150E0
2.376862026E0,-4.201050282E0,5.605050087E0,-5.725050449E0
2.379395870E0,-4.327950001E0,5.758050442E0,-5.682000160E0
2.381929655E0,-4.656000137E0,5.847000122E0,-5.605950356E0
2.384463195E0,-5.482050419E0,5.761050224E0,-5.515050411E0
2.386996811E0,-5.266950130E0,5.974050522E0,-5.641050339E0
2.389530578E0,-4.135950089E0,6.373950481E0,-5.601000309E0
2.392064171E0,-3.808050156E0,6.522000313E0,-5.629050255E0
2.394597938E0,-3.825000286E0,6.666000366E0,-5.538000107E0
2.397131556E0,-4.009050369E0,6.841050148E0,-5.164950371E0
2.399665323E0,-4.303950310E0,6.964950562E0,-4.855950356E0
2.402198954E0,-4.756050110E0,7.012950420E0,-4.842000008E0
2.404732722E0,-5.049000263E0,7.092000484E0,-4.911000252E0
2.407266339E0,-5.226000309E0,7.084950447E0,-4.968000412E0
2.409799878E0,-5.113050461E0,7.032000542E0,-5.173950195E0
2.412333660E0,-6.507000446E0,6.448050499E0,-4.851000309E0
2.414867277E0,-7.800000191E0,5.719950199E0,-4.762050152E0
2.417401044E0,-4.977000237E0,6.112950325E0,-5.782950401E0
2.419934662E0,-4.190999985E0,6.072000504E0,-5.641050339E0
2.422468424E0,-4.057050228E0,5.923950195E0,-5.977050304E0
2.425002041E0,-4.498050213E0,5.634000301E0,-5.845050335E0
2.427535809E0,-5.461050034E0,5.425050259E0,-5.686950207E0
2.430069329E0,-6.562050343E0,5.005950451E0,-5.413950443E0
2.432603072E0,-4.897950172E0,5.145000458E0,-6.322050095E0
2.435136785E0,-4.548000336E0,5.245950222E0,-6.661950111E0
2.437727866E0,-4.408950329E0,5.095050335E0,-6.810000420E0
2.440204098E0,-3.829950094E0,5.257950306E0,-6.781050205E0
2.442737712E0,-6.435000420E0,4.992000103E0,-5.742000103E0
2.445271481E0,-9.784050941E0,4.209000111E0,-5.638950348E0
2.447805095E0,-5.725950241E0,4.681050301E0,-6.274050236E0
2.450338865E0,-3.468000174E0,5.293950081E0,-7.126050472E0
2.452872403E0,-2.602950096E0,5.490000248E0,-7.549950123E0
2.455406249E0,-2.926950216E0,5.404050350E0,-6.871950150E0
2.457939887E0,-3.583050251E0,5.434950352E0,-6.156000137E0
2.460473654E0,-4.513950348E0,5.671950340E0,-5.644050121E0
2.463007194E0,-6.172050476E0,5.763000488E0,-5.365950108E0
2.465540808E0,-5.767050266E0,5.952000141E0,-5.400000095E0
2.468074586E0,-5.170950413E0,6.331050396E0,-5.269950390E0
2.470608203E0,-5.592000484E0,6.433950424E0,-5.068950176E0
2.473141971E0,-5.872050285E0,6.496050358E0,-4.882050037E0
2.475675588E0,-6.142950058E0,6.664050102E0,-4.675950050E0
2.478209355E0,-8.101950645E0,6.736050129E0,-4.504050255E0
2.480742896E0,-1.278000069E1,6.259050369E0,-4.602000237E0
2.483276509E0,-7.063050270E0,5.923950195E0,-5.545950413E0
2.485810355E0,-4.452000141E0,6.120000362E0,-6.601950169E0
2.488343892E0,-3.769950151E0,6.328050137E0,-6.919950485E0
2.490877659E0,-4.057050228E0,6.264000416E0,-5.995950222E0
2.493411276E0,-4.047000408E0,6.510000229E0,-5.509950161E0
2.495945044E0,-4.653000355E0,6.736050129E0,-5.068950176E0
2.498478661E0,-5.439000130E0,6.793050289E0,-4.887000084E0
2.501012428E0,-5.916000366E0,6.750000477E0,-4.987950325E0
2.503546046E0,-6.658050537E0,6.585000515E0,-5.052000046E0
2.506079584E0,-8.293950081E0,6.103050232E0,-5.035950184E0
2.508613432E0,-7.174950123E0,5.884950161E0,-5.764050484E0
2.511146973E0,-6.768000126E0,5.551950455E0,-6.288000107E0
2.513680740E0,-5.443950176E0,5.113950253E0,-6.469950199E0
2.516214357E0,-4.189050198E0,5.203050137E0,-6.223050117E0
2.518748144E0,-6.547950268E0,5.670000076E0,-5.566950321E0
2.521281761E0,-8.655000687E0,5.418000221E0,-4.897050381E0
2.523815528E0,-2.512050152E0,5.085000038E0,-5.923950195E0
2.526349146E0,-1.602000117E0,5.401050091E0,-6.523050308E0
2.528882928E0,-1.770000100E0,6.091050148E0,-5.893050194E0
2.531416545E0,-2.766000032E0,6.442950249E0,-4.942050457E0
2.533950084E0,-3.631050110E0,6.841050148E0,-4.659000397E0
2.536483928E0,-3.769950151E0,7.324950218E0,-4.726950169E0
2.539017706E0,-4.135950089E0,7.437000275E0,-5.038050175E0
2.541551247E0,-4.663050175E0,7.333950520E0,-5.239050388E0
2.544084862E0,-4.986000061E0,7.099950314E0,-5.269950390E0
2.546618629E0,-4.981950283E0,6.910050392E0,-5.352000237E0
2.549152233E0,-4.795050144E0,6.783000469E0,-5.518950462E0
2.551686000E0,-4.771050453E0,6.570000172E0,-5.734950066E0
2.554219617E0,-4.942950249E0,6.418950081E0,-5.746950150E0
2.556753384E0,-4.978950024E0,6.201000214E0,-5.730000496E0
2.559286944E0,-5.044050217E0,6.060000420E0,-5.754000187E0
2.561820788E0,-5.062950134E0,6.058050156E0,-5.710950375E0
2.564354329E0,-5.106000423E0,5.991000175E0,-5.560050488E0
2.566887944E0,-4.978950024E0,5.971950054E0,-5.662950039E0
2.569421702E0,-4.905000210E0,6.019050121E0,-5.512050152E0
2.571955320E0,-4.897950172E0,6.211050510E0,-5.586000443E0
2.574489087E0,-4.929000378E0,6.364050388E0,-5.863950253E0
2.577022704E0,-4.900050163E0,6.397950172E0,-5.452050209E0
2.579556470E0,-4.378050327E0,6.151050091E0,-4.849050045E0
2.582090088E0,-4.206000328E0,6.154050350E0,-5.685000420E0
2.584623626E0,-4.771050453E0,6.168000221E0,-7.372950554E0
2.587157470E0,-6.298950195E0,5.932950497E0,-8.592000008E0
2.589691236E0,-6.711000443E0,5.638950348E0,-7.687050343E0
2.592224776E0,-5.959050179E0,5.545050144E0,-6.298050404E0
2.594758392E0,-5.038950443E0,5.667000294E0,-5.397000313E0
2.597292159E0,-4.276950359E0,5.743950367E0,-4.089000225E0
2.599825771E0,-3.748050213E0,5.710050106E0,-3.105000257E0
2.602359538E0,-3.124950171E0,5.725050449E0,-3.133950233E0
2.604893156E0,-3.487050056E0,5.896950245E0,-3.091050148E0
2.607426923E0,-3.933000088E0,6.508050442E0,-3.759000063E0
2.609960453E0,-4.344000340E0,6.910050392E0,-4.540050030E0
2.612494298E0,-4.711050034E0,7.047000408E0,-4.888950348E0
2.615027838E0,-5.013000011E0,7.176000118E0,-5.209950447E0
2.617561453E0,-5.719050407E0,7.264950275E0,-5.482950211E0
2.620095192E0,-6.679950237E0,7.191000462E0,-5.656050205E0
2.622628809E0,-7.230000496E0,6.955950260E0,-5.983950138E0
2.625162576E0,-7.353000164E0,6.766950130E0,-6.376950264E0
2.627696194E0,-7.357050419E0,6.585000515E0,-6.513000488E0
2.630229961E0,-7.372050285E0,6.321000099E0,-6.439050198E0
2.632763578E0,-7.482000351E0,6.000000477E0,-6.144000053E0
2.635297117E0,-7.647000313E0,5.701050282E0,-5.613000393E0
2.637830884E0,-7.884000301E0,5.418000221E0,-5.245950222E0
2.640364735E0,-8.062050819E0,5.314950466E0,-5.110050201E0
2.642898353E0,-8.076000214E0,5.289000034E0,-5.137950420E0
2.645431891E0,-7.915050507E0,5.278950214E0,-5.404050350E0
2.647965658E0,-7.603950500E0,5.326950073E0,-5.662950039E0
2.650499276E0,-7.471950531E0,5.374950409E0,-5.773050308E0
2.653033043E0,-7.348050117E0,5.461050034E0,-5.697000504E0
2.655566660E0,-7.218000412E0,5.509050369E0,-5.275050163E0
2.658100428E0,-7.036050320E0,5.502000332E0,-4.899000168E0
2.660634064E0,-6.799050331E0,5.481000423E0,-4.482000351E0
2.663167602E0,-6.490050316E0,5.425050259E0,-4.248000145E0
2.665701447E0,-6.253050327E0,5.377950191E0,-4.152000427E0
2.668234987E0,-6.082950115E0,5.293950081E0,-4.248000145E0
2.670768754E0,-5.863050461E0,5.173950195E0,-4.600050449E0
2.673302372E0,-5.740950108E0,5.101950169E0,-4.968000412E0
2.675836139E0,-5.662050247E0,5.116050243E0,-5.196000099E0
2.678369756E0,-5.592000484E0,5.160000324E0,-5.491050243E0
2.680903524E0,-5.470050335E0,5.205000401E0,-5.713050365E0
2.683437141E0,-5.446050167E0,5.313000202E0,-5.905050278E0
2.685970908E0,-5.995050430E0,5.113950253E0,-6.448950291E0
2.688504526E0,-7.848000526E0,4.081950188E0,-7.063950539E0
2.691038303E0,-8.112000465E0,4.426949978E0,-6.949050426E0
2.693571843E0,-5.317050457E0,5.665050507E0,-6.382050514E0
2.696105687E0,-3.465000153E0,5.923950195E0,-5.674950123E0
2.698639228E0,-3.918000221E0,5.278950214E0,-4.627950191E0
2.701172838E0,-4.528950214E0,5.695950508E0,-4.312050343E0
2.703706606E0,-4.648950100E0,6.235050201E0,-4.522950172E0
2.706240223E0,-4.467000008E0,6.256950378E0,-4.638000011E0
2.708773990E0,-4.231950283E0,6.132000446E0,-4.545000076E0
2.711307589E0,-3.846000195E0,6.142050266E0,-4.360050201E0
2.713841356E0,-3.616050243E0,6.192000389E0,-4.252050400E0
2.716374896E0,-3.549000263E0,5.998050213E0,-4.183050156E0
2.718908740E0,-3.661950111E0,5.763000488E0,-4.084949970E0
2.721442362E0,-4.201050282E0,5.512050152E0,-4.105950356E0
2.723975900E0,-4.311000347E0,5.466000080E0,-4.354950428E0
2.726509668E0,-4.050000191E0,5.539950371E0,-4.831950188E0
2.729043285E0,-4.198050022E0,5.308050156E0,-5.137950420E0
2.731577052E0,-4.207950115E0,5.275050163E0,-5.215050220E0
2.734110670E0,-3.873000145E0,5.374950409E0,-5.412000179E0
2.736644437E0,-4.090950012E0,5.305950165E0,-5.557950497E0
2.739178054E0,-5.227950096E0,5.301000118E0,-5.533950329E0
2.741711589E0,-8.413949966E0,5.217000484E0,-5.617950439E0
2.744245433E0,-7.305000305E0,4.537050247E0,-6.099000454E0
2.746778973E0,-7.788000584E0,5.212050438E0,-5.923950195E0
2.749312817E0,-9.424050331E0,5.622000217E0,-6.288000107E0
2.751846367E0,-3.688050270E0,4.048050404E0,-7.300950527E0
2.754380134E0,-2.032950163E0,4.800000191E0,-6.637950420E0
2.756913752E0,-1.830000043E0,5.071050167E0,-5.275050163E0
2.759447519E0,-1.984950066E0,5.155050278E0,-4.315050125E0
2.761981147E0,-2.509950161E0,5.409000397E0,-3.735000134E0
2.764514914E0,-3.025050163E0,5.827950478E0,-4.056000233E0
2.767048455E0,-4.038000107E0,6.055050373E0,-4.690950394E0
2.769582068E0,-4.510050297E0,6.343050480E0,-5.293950081E0
2.772115895E0,-4.234050274E0,6.718950272E0,-5.716050148E0
2.774649665E0,-4.348950386E0,6.853050232E0,-5.779950142E0
2.777183205E0,-4.387950420E0,6.757050514E0,-5.433000088E0
2.779716820E0,-4.427999973E0,6.513000488E0,-5.059050083E0
2.782250583E0,-4.240950108E0,6.580050468E0,-4.978050232E0
2.784784200E0,-4.759050369E0,6.730950356E0,-5.340000153E0
2.787317967E0,-5.125050068E0,6.889050484E0,-5.397000313E0
2.789851585E0,-3.216000080E0,6.433950424E0,-4.201950073E0
2.792385357E0,-3.039000034E0,6.505950451E0,-3.606000185E0
2.794918974E0,-3.391050100E0,6.862050533E0,-3.802050114E0
2.797452513E0,-5.664000034E0,7.411050320E0,-3.874050140E0
2.799986357E0,-4.045050144E0,7.071000099E0,-4.621050358E0
2.802519892E0,-1.903950095E0,6.361950397E0,-5.317950249E0
2.805053660E0,-2.649000168E0,6.136950493E0,-5.220000267E0
2.807587277E0,-2.959950209E0,6.096000195E0,-4.735949993E0
2.810121044E0,-3.262050152E0,6.439050198E0,-4.675950050E0
2.812654671E0,-3.874950171E0,6.927000523E0,-4.968000412E0
2.815188438E0,-4.716000080E0,7.369950294E0,-5.638950348E0
2.817722055E0,-8.038050652E0,7.866000175E0,-6.259050369E0
2.820255823E0,-1.099995041E1,8.113050461E0,-7.893000603E0
2.822789411E0,-3.106050253E0,7.558950424E0,-7.536000252E0
2.825323178E0,-4.138050079E0,7.435050488E0,-6.052950382E0
2.827856719E0,-4.426050186E0,6.163050175E0,-4.966050148E0
2.830390332E0,-2.107050180E0,5.766000271E0,-4.774050236E0
2.832924097E0,-2.134050131E0,5.899950504E0,-4.558950424E0
2.835457715E0,-3.358050108E0,5.763000488E0,-4.252050400E0
2.837991482E0,-4.608000278E0,5.647950172E0,-4.567950249E0
2.840525099E0,-6.565050125E0,5.767950058E0,-5.076000214E0
2.843058881E0,-1.022400093E1,6.253950119E0,-5.701050282E0
2.845592421E0,-1.744305038E1,6.865050316E0,-7.593000412E0
2.848126265E0,-8.494950294E0,5.278950214E0,-8.605950356E0
2.850659806E0,-9.064949989E0,5.563950062E0,-7.728000164E0
2.853193636E0,-8.988000870E0,5.005950451E0,-7.978950500E0
2.855727176E0,-5.767050266E0,3.991050243E0,-5.485950470E0
2.858260792E0,-2.134050131E0,3.997950077E0,-4.758000374E0
2.860794559E0,-3.235950232E0,4.531949997E0,-3.963000298E0
2.863328171E0,-6.418950081E0,4.791000366E0,-3.972000122E0
2.865861939E0,-4.699050426E0,5.230950356E0,-4.714950085E0
2.868395556E0,-3.001050234E0,5.485050201E0,-4.231050014E0
2.870929094E0,-2.638950109E0,5.824950218E0,-4.612050056E0
2.873462895E0,-3.528000116E0,6.121950150E0,-4.900950432E0
2.875996741E0,-4.675050259E0,6.574950218E0,-4.843950272E0
2.878530358E0,-5.389050484E0,7.159050465E0,-4.755000114E0
2.881063897E0,-5.760000229E0,7.591050148E0,-5.014050007E0
2.883597664E0,-5.844000340E0,7.789050579E0,-5.209950447E0
2.886131281E0,-5.913000107E0,7.801050186E0,-5.301000118E0
2.888665049E0,-5.857950211E0,7.717050552E0,-5.305950165E0
2.891198666E0,-5.784000397E0,7.638000488E0,-5.353950024E0
2.893732448E0,-5.779050350E0,7.464000225E0,-5.304000378E0
2.896265989E0,-5.817000389E0,7.252950191E0,-5.344050407E0
2.898799602E0,-5.905950069E0,7.000950336E0,-5.404050350E0
2.901333371E0,-6.057000160E0,6.670950413E0,-5.494950294E0
2.903867212E0,-6.138000488E0,6.355050087E0,-5.605950356E0
2.906400753E0,-6.189000130E0,6.108000278E0,-5.673000336E0
2.908934368E0,-6.186000347E0,5.871000290E0,-5.608050346E0
2.911468136E0,-6.070950508E0,5.638950348E0,-5.538000107E0
2.914001738E0,-5.940000057E0,5.527950287E0,-5.509950161E0
2.916535505E0,-5.793000221E0,5.449050426E0,-5.452050209E0
2.919069123E0,-5.500950336E0,5.254950047E0,-5.293950081E0
2.921602890E0,-5.467950344E0,5.365950108E0,-5.388000488E0
2.924136497E0,-5.860050201E0,5.698050499E0,-5.488050461E0
2.926670036E0,-5.808000088E0,5.920950413E0,-5.443050385E0
2.929203880E0,-4.941000462E0,5.988000393E0,-5.385000229E0
2.931737420E0,-4.840050220E0,6.145950317E0,-5.434950352E0
2.934271196E0,-5.305050373E0,6.385950089E0,-5.256000042E0
2.936804814E0,-6.117000103E0,6.783000469E0,-5.320950031E0
2.939338581E0,-5.298000336E0,6.661050320E0,-5.277000427E0
2.941872198E0,-4.717950344E0,6.457950115E0,-5.233950138E0
2.944405981E0,-5.355000019E0,6.400050163E0,-5.395050049E0
2.946939598E0,-5.820000172E0,6.333000183E0,-5.376000404E0
2.949473137E0,-5.803050041E0,6.240000248E0,-5.359050274E0
2.952006904E0,-5.965950489E0,6.180000305E0,-5.566950321E0
2.954540516E0,-6.085950375E0,6.073950291E0,-5.764050484E0
2.957074283E0,-6.102000237E0,5.926050186E0,-5.755950451E0
2.959607901E0,-6.028050423E0,5.967000484E0,-5.662950039E0
2.962141668E0,-6.010950089E0,6.096000195E0,-5.578950405E0
2.964675290E0,-6.045000076E0,6.268050194E0,-5.574000359E0
2.967209058E0,-6.166950226E0,6.453000069E0,-5.572050095E0
2.969742675E0,-6.397050381E0,6.645000458E0,-5.608050346E0
2.972276442E0,-6.648000240E0,6.769050121E0,-5.725050449E0
2.974809988E0,-6.270000458E0,6.867000103E0,-5.938050270E0
2.977343832E0,-6.010950089E0,6.913050175E0,-5.859000206E0
2.979877372E0,-5.749950409E0,6.895950317E0,-5.686950207E0
2.982411217E0,-5.440950394E0,6.963000298E0,-5.557950497E0
2.984944757E0,-5.170950413E0,7.000950336E0,-5.452050209E0
2.987478372E0,-4.972050190E0,6.997050285E0,-5.359050274E0
2.990012140E0,-4.789950371E0,7.039950371E0,-5.329950333E0
2.992545757E0,-4.728000164E0,7.032000542E0,-5.265000343E0
2.995079495E0,-4.665000439E0,7.003950119E0,-5.206050396E0
2.997613113E0,-4.608000278E0,6.997050285E0,-5.253000259E0
3.000146880E0,-4.632000446E0,6.943950176E0,-5.344050407E0
3.002680420E0,-4.627050400E0,6.807000160E0,-5.383050442E0
3.005214265E0,-4.656000137E0,6.739950180E0,-5.476050377E0
3.007747882E0,-4.561950207E0,6.573000431E0,-5.662950039E0
3.010281420E0,-4.452000141E0,6.442950249E0,-5.859000206E0
3.012815188E0,-4.291950226E0,6.376050472E0,-5.998050213E0
3.015348800E0,-3.982950211E0,6.345000267E0,-6.016950130E0
3.017882567E0,-3.820050240E0,6.345000267E0,-5.953050137E0
3.020416185E0,-3.781950235E0,6.280050278E0,-5.800050259E0
3.022949952E0,-3.765000105E0,6.265950203E0,-5.803950310E0
3.025483554E0,-3.817950249E0,6.345000267E0,-5.907000065E0
3.028017093E0,-3.889050245E0,6.418950081E0,-5.962050438E0
3.030550860E0,-4.033050060E0,6.520050526E0,-5.994000435E0
3.033084477E0,-4.111950397E0,6.604050159E0,-6.034050465E0
3.035618294E0,-4.129050255E0,6.714000225E0,-6.070050240E0
3.038151834E0,-4.134000301E0,6.747000217E0,-6.073050499E0
3.040685601E0,-4.215000153E0,6.750000477E0,-6.091950417E0
3.043219219E0,-4.215000153E0,6.771000385E0,-6.112950325E0
3.045753000E0,-4.179000378E0,6.721050262E0,-6.094050407E0
3.048286617E0,-4.155000210E0,6.661050320E0,-6.003000259E0
3.050820385E0,-4.171950340E0,6.582000256E0,-5.953050137E0
3.053354002E0,-4.143000126E0,6.484050274E0,-5.994000435E0
3.055887511E0,-4.107000351E0,6.441000462E0,-5.938050270E0
3.058421279E0,-4.051949978E0,6.297000408E0,-5.883000374E0
3.060955125E0,-4.014000416E0,6.228000164E0,-5.955000401E0
3.063488742E0,-3.958950281E0,6.343050480E0,-5.983950138E0
3.066022281E0,-3.882000208E0,6.145950317E0,-6.007950306E0
3.068556043E0,-3.817950249E0,5.731950283E0,-6.007950306E0
3.071089660E0,-3.885000229E0,5.617050171E0,-6.180000305E0
3.073623428E0,-4.179000378E0,5.626950264E0,-6.439050198E0
3.076157045E0,-4.603050232E0,5.587950230E0,-6.790950298E0
3.078690812E0,-5.331000328E0,5.509050369E0,-7.038000107E0
3.081224430E0,-5.065050125E0,5.446950436E0,-7.201050282E0
3.083757968E0,-4.765950203E0,5.494950294E0,-7.131000519E0
3.086291735E0,-5.887050152E0,5.452050209E0,-6.853050232E0
3.088825592E0,-5.044050217E0,5.619000435E0,-6.676050186E0
3.091359133E0,-7.654050350E0,5.512050152E0,-6.051000118E0
3.093892748E0,-3.331050158E0,5.361000061E0,-6.778950214E0
3.096426515E0,-1.786950111E0,5.883000374E0,-6.604050159E0
3.098960128E0,-6.783000469E0,5.653050423E0,-5.494950294E0
3.101493895E0,-5.604000092E0,5.799000263E0,-6.220950127E0
3.104027512E0,-5.307000160E0,5.919000149E0,-5.914050102E0
3.106561280E0,-2.347050190E0,6.325950146E0,-6.132000446E0
3.109094820E0,-9.724050522E0,6.216000080E0,-6.010050297E0
3.111628664E0,-2.958000183E0,5.527950287E0,-6.829050541E0
3.114162205E0,-2.461950064E0,6.337950230E0,-5.637000084E0
3.116696049E0,-3.838950157E0,6.022050381E0,-5.706000328E0
3.119229575E0,-7.395000011E-2,5.631000042E0,-5.407050133E0
3.121763191E0,-1.530000091E0,6.118050098E0,-4.570950031E0
3.124296958E0,8.689500690E-1,5.713050365E0,-5.143050194E0
3.126830575E0,-9.105000645E-2,6.064950466E0,-4.223999977E0
3.129364333E0,1.278000116E0,5.932950497E0,-4.125000000E0
3.131897950E0,3.553050280E0,4.579950333E0,-3.541050196E0
3.134431717E0,2.004000187E0,4.530000210E0,-3.394950151E0
3.136965335E0,-1.027050018E0,5.950050354E0,-4.189949989E0
3.139499097E0,-3.882000208E0,7.332000256E0,-5.565000057E0
3.142032714E0,-5.082000256E0,7.974000454E0,-6.453000069E0
3.144566253E0,-2.194050074E0,7.332000256E0,-6.231000423E0
3.147100020E0,-1.743000031E0,6.946050167E0,-5.590950489E0
3.149633651E0,-2.208000183E0,6.508050442E0,-4.621050358E0
3.152167419E0,-2.782950163E0,6.265950203E0,-4.177950382E0
3.154701036E0,-3.408000231E0,6.259050369E0,-4.195050240E0
3.157234803E0,-3.754950285E0,6.132000446E0,-4.492050171E0
3.159768431E0,-4.267950058E0,6.027000427E0,-5.038050175E0
3.162302198E0,-5.556000233E0,6.133950233E0,-4.846050262E0
3.164835815E0,-6.471000195E0,6.160950184E0,-4.858050346E0
3.167369354E0,-7.000950336E0,6.189000130E0,-5.277000427E0
3.169903174E0,-7.618050575E0,6.277950287E0,-5.479050159E0
3.172436714E0,-8.044950485E0,6.288000107E0,-5.716050148E0
3.174970482E0,-8.545050621E0,6.328050137E0,-5.668050289E0
3.177504099E0,-8.822999954E0,6.273000240E0,-5.503050327E0
3.180037861E0,-8.955000877E0,6.184950352E0,-5.553000450E0
3.182571479E0,-9.307050705E0,6.151050091E0,-5.530950069E0
3.185105246E0,-9.645000458E0,6.108000278E0,-5.416050434E0
3.187638863E0,-1.001595020E1,6.010050297E0,-5.428050041E0
3.190172421E0,-9.585000038E0,5.932950497E0,-5.526000500E0
3.192706265E0,-9.766950607E0,5.755950451E0,-5.473950386E0
3.195240034E0,-1.007100010E1,5.542950153E0,-5.325000286E0
3.197773652E0,-9.454950333E0,5.550000191E0,-5.191050053E0
3.200307214E0,-8.758049965E0,5.701050282E0,-5.167050362E0
3.202840981E0,-8.143050194E0,5.848950386E0,-5.011950016E0
3.205374599E0,-7.498950481E0,6.003000259E0,-4.711950302E0
3.207908366E0,-6.852000237E0,6.181950092E0,-4.542000294E0
3.210441964E0,-6.280050278E0,6.409950256E0,-4.245000362E0
3.212975732E0,-5.632950306E0,6.676050186E0,-3.943050146E0
3.215509349E0,-5.113050461E0,6.882000446E0,-3.864000082E0
3.218042887E0,-4.740000248E0,7.060950279E0,-3.883950233E0
3.220576771E0,-4.474050045E0,7.246050358E0,-3.967050076E0
3.223110540E0,-3.901050091E0,6.568050385E0,-3.546000242E0
3.225644157E0,-3.343050241E0,5.788950443E0,-3.318000078E0
3.228177696E0,-3.432000160E0,6.778950214E0,-4.285950184E0
3.230711477E0,-3.403050184E0,7.321950436E0,-4.666950226E0
3.233245094E0,-3.801000118E0,7.722000599E0,-4.806000233E0
3.235778862E0,-3.991950274E0,7.963950157E0,-5.023950100E0
3.238312479E0,-3.997050285E0,8.067000389E0,-5.185950279E0
3.240846227E0,-4.198050022E0,7.995000362E0,-5.083050251E0
3.243379768E0,-4.552950382E0,7.746000290E0,-4.710000038E0
3.245913612E0,-4.617000103E0,7.441950321E0,-4.518000126E0
3.248447152E0,-4.372950077E0,7.120950222E0,-4.825050354E0
3.250980980E0,-3.922950268E0,6.702000141E0,-4.984950066E0
3.253514521E0,-3.463050127E0,6.357000351E0,-5.050050259E0
3.256048136E0,-2.965050220E0,6.040950298E0,-4.912950039E0
3.258581903E0,-2.770950079E0,5.851950169E0,-4.389000416E0
3.261115531E0,-2.215050220E0,5.919000149E0,-4.717050076E0
3.263649298E0,-1.686000109E0,5.875950336E0,-4.726950169E0
3.266182916E0,-1.342950106E0,5.718000412E0,-4.843950272E0
3.268716683E0,-1.044000030E0,5.611950397E0,-4.711950302E0
3.271250223E0,-8.530500531E-1,5.650950432E0,-4.630950451E0
3.273784067E0,-9.199500680E-1,5.766000271E0,-4.558950424E0
3.276317685E0,-9.630000591E-1,5.827950478E0,-4.603950024E0
3.278851452E0,-8.260500431E-1,5.872950077E0,-4.942050457E0
3.281385020E0,-8.839500546E-1,5.998050213E0,-5.137950420E0
3.283918634E0,-9.169500470E-1,6.048000336E0,-4.779000282E0
3.286452403E0,-1.003050089E0,6.109950066E0,-4.609050274E0
3.288986020E0,-1.216950059E0,6.253950119E0,-4.723950386E0
3.291519779E0,-1.175999999E0,6.321000099E0,-4.540050030E0
3.294053396E0,-1.161000013E0,6.349950314E0,-4.369950294E0
3.296587163E0,-1.315050006E0,6.424050331E0,-4.260000229E0
3.299120781E0,-1.390950084E0,6.409950256E0,-4.390950203E0
3.301654338E0,-1.569000125E0,6.417000294E0,-4.506000042E0
3.304188182E0,-1.947000146E0,6.379050255E0,-4.600050449E0
3.306721723E0,-2.392950058E0,6.331050396E0,-4.602000237E0
3.309255490E0,-2.842950106E0,6.276000500E0,-4.813050270E0
3.311789088E0,-3.336000204E0,6.271050453E0,-5.104950428E0
3.314322856E0,-3.676050186E0,6.232950211E0,-5.263050079E0
3.316856473E0,-3.730950117E0,6.253950119E0,-5.392050266E0
3.319390240E0,-3.204000235E0,6.283050060E0,-4.939950466E0
3.321923872E0,-3.118050098E0,6.370950222E0,-4.930050373E0
3.324457639E0,-3.220950127E0,6.502950191E0,-5.032950401E0
3.326991256E0,-3.135000229E0,6.715950489E0,-4.966050148E0
3.329525024E0,-3.300000191E0,6.889050484E0,-4.831950188E0
3.332058656E0,-4.492950439E0,7.180950165E0,-5.028000355E0
3.334592194E0,-9.106050491E0,7.806000233E0,-5.698950291E0
3.337125962E0,-9.604050636E0,7.935000420E0,-6.348000526E0
3.339659579E0,-3.918000221E0,7.345950127E0,-6.415050507E0
3.342193355E0,-7.879500389E-1,6.357000351E0,-5.887950420E0
3.344726973E0,-2.368950129E0,5.562000275E0,-4.537050247E0
3.347260740E0,-4.303950310E0,5.454000473E0,-4.003050327E0
3.349794357E0,-7.261950493E0,6.169950485E0,-5.191050053E0
3.352328125E0,-8.902050018E0,6.703950405E0,-6.898950100E0
3.354861742E0,-7.132050514E0,6.505950451E0,-7.368000507E0
3.357395509E0,-2.236950159E0,5.730000496E0,-6.886950493E0
3.359929127E0,-1.257000089E0,5.052000046E0,-5.646000385E0
3.362462670E0,-1.849050045E0,4.960950375E0,-4.336050034E0
3.364996437E0,-2.596050024E0,5.119050026E0,-4.000950336E0
3.367530055E0,-5.005050182E0,5.899950504E0,-4.777050018E0
3.370063822E0,-5.395950317E0,6.429000378E0,-5.368050098E0
3.372597429E0,-6.780000210E0,6.883950233E0,-5.970000267E0
3.375131197E0,-5.937000275E0,7.092000484E0,-6.097050190E0
3.377664814E0,-3.385950089E0,6.558000088E0,-5.719950199E0
3.380198581E0,-3.865050077E0,6.252000332E0,-4.939950466E0
3.382732180E0,-3.904050112E0,6.160950184E0,-4.486950397E0
3.385265947E0,-1.933050036E0,5.787000179E0,-4.434000015E0
3.387799564E0,-2.071950197E0,5.860950470E0,-4.276050091E0
3.390333103E0,-2.803950071E0,6.177000523E0,-4.204050064E0
3.392866851E0,-3.564000130E0,6.529950142E0,-4.602000237E0
3.395400468E0,-4.597949982E0,6.970050335E0,-5.230050087E0
3.397934312E0,-5.358000278E0,7.341000557E0,-5.742000103E0
3.400467853E0,-5.725950241E0,7.519050121E0,-6.088950157E0
3.403001634E0,-5.923050404E0,7.465950489E0,-6.304950237E0
3.405535252E0,-6.073950291E0,7.308000565E0,-6.421950340E0
3.408069019E0,-6.186000347E0,7.135050297E0,-6.267000198E0
3.410602636E0,-6.375000477E0,6.976950169E0,-6.207000256E0
3.413136424E0,-6.679950237E0,6.865050316E0,-6.664050102E0
3.415670042E0,-7.015050411E0,6.795000553E0,-6.967950344E0
3.418203580E0,-7.117950439E0,6.585000515E0,-7.066050529E0
3.420737347E0,-7.036050320E0,6.280050278E0,-6.987000465E0
3.423270969E0,-7.041000366E0,6.007050514E0,-6.870000362E0
3.425804736E0,-6.780000210E0,5.859000206E0,-6.676050186E0
3.428338359E0,-6.415950298E0,5.782050133E0,-6.388950348E0
3.430872079E0,-6.259950161E0,5.847000122E0,-6.219000340E0
3.433405784E0,-6.160050392E0,5.935950279E0,-6.103950500E0
3.435939510E0,-6.070950508E0,6.040950298E0,-5.970000267E0
3.438473128E0,-6.022950172E0,6.157950401E0,-6.010050297E0
3.441006895E0,-5.920050144E0,6.189000130E0,-6.034050465E0
3.443540435E0,-5.299950123E0,6.144000053E0,-5.917050362E0
3.446074025E0,-6.202950478E0,6.073950291E0,-5.911950111E0
3.448607794E0,-6.037950516E0,5.995050430E0,-5.491050243E0
3.451141411E0,-6.105000496E0,5.980950356E0,-5.245950222E0
3.453675256E0,-6.154950142E0,5.959950447E0,-5.517000198E0
3.456208825E0,-6.133950233E0,5.950050354E0,-5.449950218E0
3.458742592E0,-6.034950256E0,5.895000458E0,-5.335050106E0
3.461276210E0,-6.040050507E0,5.962050438E0,-5.364000320E0
3.463809977E0,-6.142950058E0,6.084000111E0,-5.389950275E0
3.466343584E0,-6.141000271E0,6.192000389E0,-5.248950481E0
3.468877352E0,-6.148050308E0,6.349950314E0,-5.230050087E0
3.471410892E0,-5.971050262E0,6.544050217E0,-5.031000137E0
3.473944736E0,-5.974950314E0,6.736050129E0,-4.983000278E0
3.476478296E0,-6.061950207E0,6.927000523E0,-5.020950317E0
3.479012140E0,-5.947050095E0,7.140000343E0,-4.806000233E0
3.481545680E0,-5.650050163E0,7.351050377E0,-4.570950031E0
3.484079296E0,-5.722050190E0,7.582950592E0,-4.576050282E0
3.486613063E0,-5.619000435E0,7.677000523E0,-4.554000378E0
3.489146680E0,-5.724000454E0,7.734000206E0,-4.545000076E0
3.491680448E0,-5.476950169E0,7.837050438E0,-4.221000195E0
3.494214065E0,-5.326050282E0,8.050050735E0,-4.003050327E0
3.496747832E0,-5.310000420E0,8.220000267E0,-4.048950195E0
3.499281450E0,-5.166000366E0,8.362050056E0,-3.907050133E0
3.501814988E0,-5.334000111E0,8.413949966E0,-3.928950071E0
3.504348755E0,-5.209050179E0,8.484000206E0,-3.874050140E0
3.506882388E0,-5.254950047E0,8.497950554E0,-3.900000095E0
3.509416155E0,-5.110950470E0,8.422050476E0,-4.057950020E0
3.511949772E0,-5.095950127E0,8.374050140E0,-4.141950130E0
3.514483540E0,-4.989000320E0,8.419050217E0,-4.168950081E0
3.517017137E0,-4.861950397E0,8.500950813E0,-4.066050053E0
3.519550904E0,-4.789950371E0,8.496000290E0,-4.051050186E0
3.522084522E0,-4.584000111E0,8.401950836E0,-4.036950111E0
3.524618289E0,-4.498050213E0,8.272950172E0,-4.039050102E0
3.527151906E0,-4.375950336E0,8.026050568E0,-4.149000168E0
3.529685445E0,-4.215000153E0,7.846950531E0,-4.288050175E0
3.532219289E0,-4.392000198E0,7.737000465E0,-4.153950214E0
3.534752829E0,-4.443000317E0,7.513950348E0,-4.128000259E0
3.537286607E0,-4.231950283E0,7.282050133E0,-4.293000221E0
3.539820224E0,-4.153050423E0,7.156950474E0,-4.422000408E0
3.542353991E0,-4.122000217E0,7.099950314E0,-4.731000423E0
3.544887609E0,-4.126950264E0,7.195050240E0,-5.011950016E0
3.547421371E0,-3.862950087E0,7.021050453E0,-5.079000473E0
3.549954988E0,-3.445950270E0,6.853050232E0,-5.311050415E0
3.552488755E0,-3.187950134E0,6.843000412E0,-5.148000240E0
3.555022296E0,-3.019950151E0,6.810000420E0,-4.954050064E0
3.557556159E0,-2.802000046E0,6.819000244E0,-4.786050320E0
3.560089700E0,-2.601000071E0,6.817050457E0,-4.633050442E0
3.562623315E0,-2.512050152E0,6.879000187E0,-4.681050301E0
3.565157082E0,-2.527050018E0,6.811950207E0,-4.801050186E0
3.567690700E0,-2.548050165E0,6.685050488E0,-5.032950401E0
3.570224467E0,-2.572050095E0,6.726000309E0,-5.026050091E0
3.572758084E0,-2.716050148E0,6.739950180E0,-5.227050304E0
3.575291851E0,-2.806950092E0,6.786000252E0,-5.457000256E0
3.577825474E0,-2.791950226E0,6.843000412E0,-5.395050049E0
3.580359012E0,-2.791950226E0,6.834000111E0,-5.443050385E0
3.582892779E0,-2.982000113E0,6.726000309E0,-5.625000477E0
3.585426626E0,-2.991000175E0,6.691950321E0,-5.574000359E0
3.587960214E0,-3.037050247E0,6.679950237E0,-5.476050377E0
3.590493753E0,-3.139950037E0,6.667950153E0,-5.574000359E0
3.593027520E0,-3.159000158E0,6.678000450E0,-5.577000141E0
3.595561137E0,-3.295050144E0,6.606000423E0,-5.572050095E0
3.598094890E0,-3.340950251E0,6.640050411E0,-5.694000244E0
3.600628508E0,-3.385950089E0,6.774000168E0,-5.457000256E0
3.603162275E0,-3.544950247E0,6.843000412E0,-5.328000069E0
3.605695892E0,-3.657000065E0,6.952950478E0,-5.293950081E0
3.608229431E0,-3.655050278E0,7.071000099E0,-5.092950344E0
3.610763275E0,-3.753000259E0,7.195050240E0,-4.939950466E0
3.613296815E0,-3.886950254E0,7.332000256E0,-4.743000031E0
3.615830660E0,-3.964050293E0,7.360950470E0,-4.666950226E0
3.618364176E0,-4.054950237E0,7.444050312E0,-4.600050449E0
3.620897943E0,-4.039950371E0,7.521000385E0,-4.573050022E0
3.623431561E0,-3.978000164E0,7.540050507E0,-4.662000179E0
3.625965328E0,-4.078950405E0,7.585950375E0,-4.671000004E0
3.628498925E0,-4.231950283E0,7.522950172E0,-4.899000168E0
3.631032693E0,-4.294050217E0,7.428000450E0,-5.206050396E0
3.633566310E0,-4.359000206E0,7.320000172E0,-5.373000145E0
3.636100077E0,-4.962000370E0,7.212000370E0,-5.184000015E0
3.638633681E0,-6.283950329E0,6.082050323E0,-4.249950409E0
3.641167448E0,-6.997950554E0,5.689050198E0,-3.603000164E0
3.643701065E0,-5.740950108E0,5.908950329E0,-4.465050220E0
3.646234604E0,-5.362050056E0,6.115050316E0,-4.486950397E0
3.648768366E0,-4.669950008E0,6.457950115E0,-4.864950180E0
3.651301983E0,-4.039950371E0,6.691950321E0,-5.409000397E0
3.653835751E0,-3.796050072E0,6.918000221E0,-5.653050423E0
3.656369368E0,-3.604050159E0,7.080000401E0,-6.127950191E0
3.658903130E0,-3.580050230E0,7.176000118E0,-6.322050095E0
3.661436748E0,-3.456000090E0,7.279050350E0,-6.475050449E0
3.663970286E0,-3.352950096E0,7.392000198E0,-6.295050144E0
3.666504130E0,-3.336000204E0,7.404000282E0,-5.998050213E0
3.669037875E0,-3.472950220E0,7.357950211E0,-5.610000134E0
3.671571493E0,-3.637950182E0,7.417950153E0,-5.179050446E0
3.674105031E0,-3.742950201E0,7.333950520E0,-4.786050320E0
3.676638799E0,-4.074000359E0,7.303050518E0,-4.518000126E0
3.679172426E0,-4.215000153E0,7.413000584E0,-4.801050186E0
3.681706193E0,-4.282050133E0,7.459050179E0,-4.806000233E0
3.684239811E0,-4.387950420E0,7.480050564E0,-4.819950104E0
3.686773578E0,-4.408950329E0,7.353000164E0,-5.122050285E0
3.689307181E0,-4.336950302E0,7.267050266E0,-5.485950470E0
3.691840948E0,-4.231950283E0,7.222050190E0,-5.632050037E0
3.694374489E0,-4.207950115E0,7.143000126E0,-5.767950058E0
3.696908333E0,-4.189050198E0,7.027950287E0,-5.878950119E0
3.699441926E0,-4.131000042E0,6.903000355E0,-5.899950504E0
3.701975465E0,-4.018949986E0,6.927000523E0,-5.869050503E0
3.704509232E0,-3.886950254E0,6.886050224E0,-5.790000439E0
3.707042850E0,-3.741000175E0,6.846000195E0,-5.613000393E0
3.709576626E0,-3.649950266E0,6.795000553E0,-5.445000172E0
3.712110243E0,-3.565950155E0,6.855000496E0,-5.443050385E0
3.714644010E0,-3.492000103E0,6.975000381E0,-5.602950096E0
3.717177628E0,-3.370050192E0,7.021050453E0,-5.589000225E0
3.719711395E0,-3.250050068E0,7.096950531E0,-5.481000423E0
3.722245012E0,-3.243000269E0,7.210050106E0,-5.437950134E0
3.724778780E0,-3.280950069E0,7.327050209E0,-5.505000114E0
3.727312397E0,-3.334050179E0,7.389000416E0,-5.553000450E0
3.729845926E0,-3.537000179E0,7.413000584E0,-5.610000134E0
3.732379693E0,-3.955950260E0,7.219050407E0,-5.955000401E0
3.734913310E0,-4.414050102E0,7.035000324E0,-6.016950130E0
3.737447077E0,-4.519050121E0,6.970050335E0,-5.971950054E0
3.739980676E0,-4.143000126E0,6.886050224E0,-5.854950428E0
3.742514443E0,-3.739050150E0,6.946050167E0,-5.709000111E0
3.745048060E0,-3.406050205E0,7.054050446E0,-5.586000443E0
3.747581599E0,-3.099000216E0,7.140000343E0,-5.536050320E0
3.750115466E0,-2.959950209E0,7.303050518E0,-5.506950378E0
3.752649235E0,-2.830950022E0,7.428000450E0,-5.488050461E0
3.755182853E0,-2.791950226E0,7.528050423E0,-5.380050182E0
3.757716391E0,-2.782950163E0,7.618950367E0,-5.325000286E0
3.760250182E0,-2.893050194E0,7.726950169E0,-5.304000378E0
3.762783800E0,-3.015000105E0,7.777050495E0,-5.220000267E0
3.765317567E0,-3.220950127E0,7.794000149E0,-5.284950256E0
3.767851184E0,-3.364950180E0,7.792050362E0,-5.349000454E0
3.770384938E0,-3.475050211E0,7.726950169E0,-5.377950191E0
3.772918555E0,-3.501000166E0,7.686000347E0,-5.458950043E0
3.775452322E0,-3.477000237E0,7.630950451E0,-5.530950069E0
3.777985940E0,-3.421950102E0,7.570950508E0,-5.586000443E0
3.780519712E0,-3.351000071E0,7.543050289E0,-5.637000084E0
3.783053329E0,-3.286050081E0,7.512000561E0,-5.634000301E0
3.785586868E0,-3.235950232E0,7.492050171E0,-5.602950096E0
3.788120635E0,-3.211950064E0,7.471050262E0,-5.521950245E0
3.790654495E0,-3.304950237E0,7.504050255E0,-5.662950039E0
3.793188036E0,-3.223950148E0,7.521000385E0,-5.565000057E0
3.795721651E0,-3.172950268E0,7.543050289E0,-5.518950462E0
3.798255418E0,-3.139950037E0,7.557000160E0,-5.473950386E0
3.800789055E0,-3.112950087E0,7.557000160E0,-5.431050301E0
3.803322822E0,-3.019950151E0,7.516050339E0,-5.272950172E0
3.805856439E0,-2.962950230E0,7.521000385E0,-5.208000183E0
3.808390206E0,-2.773050070E0,7.569000244E0,-4.849050045E0
3.810923829E0,-2.721000195E0,7.701000214E0,-4.791000366E0
3.813457367E0,-2.803950071E0,7.873050213E0,-4.903950214E0
3.815991135E0,-2.919000149E0,7.915950298E0,-5.146050453E0
3.818524752E0,-2.962950230E0,7.962000370E0,-5.317950249E0
3.821058538E0,-3.031950235E0,7.969050407E0,-5.467050076E0
3.823592156E0,-3.175950050E0,7.990950584E0,-5.689050198E0
3.826125923E0,-3.303000212E0,7.981050491E0,-5.658000469E0
3.828659540E0,-3.430050135E0,7.911000252E0,-5.560050488E0
3.831193307E0,-3.513000250E0,7.842000484E0,-5.505000114E0
3.833726925E0,-3.589950085E0,7.786950588E0,-5.485950470E0
3.836260692E0,-3.655050278E0,7.705050468E0,-5.434950352E0
3.838794309E0,-3.661950111E0,7.605000496E0,-5.353950024E0
3.841327853E0,-3.657000065E0,7.552050591E0,-5.376000404E0
3.843861697E0,-3.703050137E0,7.531050205E0,-5.407050133E0
3.846395238E0,-3.745950222E0,7.476000309E0,-5.446950436E0
3.848929082E0,-3.802950144E0,7.489950180E0,-5.434950352E0
3.851462627E0,-3.832050085E0,7.476000309E0,-5.512050152E0
3.853996394E0,-3.954000235E0,7.531050205E0,-5.565000057E0
3.856530012E0,-4.062000275E0,7.569000244E0,-5.613000393E0
3.859063779E0,-4.122000217E0,7.605000496E0,-5.680050373E0
3.861597424E0,-4.155000210E0,7.660050392E0,-5.665050507E0
3.864131192E0,-4.102950096E0,7.713000298E0,-5.617950439E0
3.866664809E0,-4.026000023E0,7.741050243E0,-5.685000420E0
3.869198348E0,-3.892050266E0,7.641000271E0,-5.388000488E0
3.871732111E0,-3.691050291E0,7.609950542E0,-5.272950172E0
3.874265957E0,-3.607050180E0,7.573950291E0,-5.185950279E0
3.876799497E0,-3.595050097E0,7.545000553E0,-5.112000465E0
3.879333113E0,-3.631050110E0,7.555050373E0,-5.068950176E0
3.881866880E0,-3.544950247E0,7.597950459E0,-5.055000305E0
3.884400497E0,-3.508950233E0,7.633950233E0,-5.124000072E0
3.886934265E0,-3.463050127E0,7.654950142E0,-5.124000072E0
3.889467882E0,-3.304950237E0,7.698000431E0,-5.182050228E0
3.892001677E0,-3.154050112E0,7.794000149E0,-5.431050301E0
3.894535295E0,-3.007950068E0,7.825050354E0,-5.446950436E0
3.897068833E0,-2.989050150E0,7.830000401E0,-5.200950146E0
3.899602600E0,-2.899950027E0,7.866000175E0,-5.155050278E0
3.902136463E0,-2.955000162E0,7.834950447E0,-5.091000080E0
3.904670080E0,-2.986050129E0,7.768050194E0,-4.948950291E0
3.907203618E0,-2.959950209E0,7.690950394E0,-4.984950066E0
3.909737386E0,-2.907000065E0,7.573950291E0,-5.143050194E0
3.912271017E0,-2.965050220E0,7.300950527E0,-4.990050316E0
3.914804784E0,-2.764050245E0,7.051950455E0,-5.191050053E0
3.917338402E0,-2.593950033E0,6.810000420E0,-5.313000202E0
3.919872169E0,-2.467050076E0,6.774000168E0,-5.470950127E0
3.922405757E0,-2.476050138E0,6.982050419E0,-5.713050365E0
3.924939296E0,-2.878950119E0,7.380000114E0,-5.919000149E0
3.927473140E0,-3.178050041E0,7.650000572E0,-6.184950352E0
3.930006909E0,-3.303000212E0,7.813050270E0,-6.216000080E0
3.932540546E0,-3.279000044E0,7.782000542E0,-6.067950249E0
3.935074084E0,-3.163950205E0,7.705050468E0,-5.694000244E0
3.937607851E0,-2.926950216E0,7.618950367E0,-5.526000500E0
3.940141469E0,-2.815950155E0,7.465950489E0,-5.256000042E0
3.942675246E0,-2.697000027E0,7.348950386E0,-5.127000332E0
3.945208863E0,-2.541000128E0,7.222050190E0,-5.028000355E0
3.947742631E0,-2.614950180E0,7.249950409E0,-5.143050194E0
3.950276248E0,-2.601000071E0,7.216950417E0,-5.158050060E0
3.952810001E0,-2.730000019E0,7.327050209E0,-5.292000294E0
3.955343619E0,-2.754000187E0,7.417950153E0,-5.325000286E0
3.957877386E0,-2.815950155E0,7.447050571E0,-5.232000351E0
3.960411003E0,-2.902950048E0,7.561950207E0,-5.241000175E0
3.962944755E0,-2.922000170E0,7.612050533E0,-5.347050190E0
3.965478296E0,-3.085050106E0,7.549950123E0,-5.268000126E0
3.968011909E0,-3.136950254E0,7.507050514E0,-5.299050331E0
3.970545678E0,-2.716050148E0,7.417950153E0,-5.500050068E0
3.973079253E0,-2.706000090E0,7.264950275E0,-5.287050247E0
3.975613020E0,-2.860050201E0,7.176000118E0,-5.110050201E0
3.978146638E0,-2.863950253E0,7.143000126E0,-5.062050343E0
3.980680405E0,-2.706000090E0,7.128000259E0,-5.035950184E0
3.983214017E0,-2.539050102E0,7.054050446E0,-4.995000362E0
3.985747784E0,-2.455050230E0,6.979950428E0,-4.954050064E0
3.988281402E0,-2.373000145E0,6.930000305E0,-5.028000355E0
3.990815169E0,-2.332950115E0,6.925050259E0,-5.115000248E0
3.993348709E0,-2.233950138E0,6.988950253E0,-5.371050358E0
3.995882323E0,-2.389950037E0,7.063950539E0,-5.512050152E0
3.998416092E0,-2.467050076E0,7.102050304E0,-5.601000309E0
4.000949709E0,-2.455050230E0,7.128000259E0,-5.718000412E0
4.003483482E0,-2.329950094E0,7.219050407E0,-5.713050365E0
4.006017099E0,-2.104950190E0,7.296000481E0,-5.644050121E0
4.008550866E0,-2.170050144E0,7.222050190E0,-5.488050461E0
4.011084407E0,-2.251049995E0,6.985050201E0,-5.431050301E0
4.013618255E0,-2.266050100E0,6.865050316E0,-5.464050293E0
4.016151872E0,-2.209950209E0,6.774000168E0,-5.383050442E0
4.018685640E0,-2.347050190E0,6.841050148E0,-5.140950203E0
4.021219180E0,-2.638950109E0,7.027950287E0,-4.851000309E0
4.023752769E0,-3.073050261E0,7.285950184E0,-4.603950024E0
4.026286539E0,-3.601950169E0,7.483050346E0,-4.588050365E0
4.028820156E0,-4.030950069E0,7.629000187E0,-4.879950047E0
4.031353923E0,-4.567049980E0,7.746000290E0,-5.176950455E0
4.033887551E0,-4.989000320E0,7.806000233E0,-5.389950275E0
4.036421318E0,-5.350050449E0,7.797000408E0,-5.569950104E0
4.038954935E0,-5.404950142E0,7.801050186E0,-5.553000450E0
4.041488703E0,-5.461050034E0,7.888050556E0,-5.365950108E0
4.044022310E0,-5.494050026E0,8.227950096E0,-4.753050327E0
4.046556077E0,-5.238000393E0,8.410050392E0,-4.125000000E0
4.049089618E0,-4.597949982E0,8.434050560E0,-3.903000116E0
4.051623231E0,-4.098000050E0,8.400000572E0,-4.378950119E0
4.054156976E0,-3.838950157E0,8.280000687E0,-4.968000412E0
4.056690594E0,-3.580050230E0,8.151000023E0,-5.376000404E0
4.059224361E0,-3.412950277E0,8.026050568E0,-5.512050152E0
4.061757978E0,-3.276000261E0,7.983000278E0,-5.287050247E0
4.064291726E0,-3.076950073E0,8.017050743E0,-4.786050320E0
4.066825343E0,-2.737050056E0,8.067000389E0,-4.426949978E0
4.069359110E0,-2.565000057E0,8.104949951E0,-4.504050255E0
4.071892728E0,-2.668050051E0,8.119950294E0,-4.621050358E0
4.074426485E0,-2.935950041E0,8.050050735E0,-4.795950413E0
4.076960025E0,-3.001050234E0,7.921050549E0,-5.019000053E0
4.079493639E0,-3.063000202E0,7.830000401E0,-5.071050167E0
4.082027408E0,-3.063000202E0,7.714950562E0,-4.870050430E0
4.084561025E0,-3.073050261E0,7.573950291E0,-4.645050049E0
4.087094793E0,-3.103950262E0,7.387050152E0,-4.578000069E0
4.089628410E0,-3.106050253E0,7.236000538E0,-4.552050114E0
4.092162177E0,-3.171000242E0,7.068000317E0,-4.413000107E0
4.094695790E0,-3.373950243E0,7.030050278E0,-4.363049984E0
4.097229557E0,-3.636000156E0,7.095000267E0,-4.402950287E0
4.099763174E0,-3.904050112E0,7.176000118E0,-4.486950397E0
4.102296941E0,-4.095000267E0,7.291050434E0,-4.521000385E0
4.104830569E0,-4.255949974E0,7.432050228E0,-4.818000317E0
4.107364336E0,-4.275000095E0,7.509000301E0,-5.080950260E0
4.109897877E0,-4.237050056E0,7.552050591E0,-5.152950287E0
4.112431721E0,-4.227000237E0,7.428000450E0,-5.224950314E0
4.114965266E0,-4.339950085E0,7.441950321E0,-5.433000088E0
4.117498882E0,-4.444950104E0,7.399050236E0,-5.512050152E0
4.120032649E0,-4.416000366E0,7.360950470E0,-5.542950153E0
4.122566266E0,-4.360949993E0,7.285950184E0,-5.509950161E0
4.125100042E0,-4.276950359E0,7.315050125E0,-5.434950352E0
4.127633660E0,-4.324950218E0,7.341000557E0,-5.469000340E0
4.130167427E0,-4.285050392E0,7.345950127E0,-5.512050152E0
4.132701044E0,-4.123950005E0,7.312950134E0,-5.476050377E0
4.135234860E0,-4.227000237E0,7.300950527E0,-5.131050110E0
4.137768400E0,-4.246050358E0,7.401000500E0,-4.956000328E0
4.140302014E0,-4.498050213E0,7.678950310E0,-4.903950214E0
4.142835860E0,-4.831050396E0,7.654950142E0,-4.774050236E0
4.145369410E0,-4.663050175E0,7.579050541E0,-4.954050064E0
4.147903177E0,-4.594050407E0,7.579050541E0,-4.945050240E0
4.150436795E0,-4.941000462E0,7.567050457E0,-4.837050438E0
4.152970562E0,-5.487000465E0,7.528050423E0,-5.329950333E0
4.155504198E0,-5.544000149E0,7.321950436E0,-5.316000462E0
4.158037966E0,-5.479950428E0,7.095000267E0,-5.148000240E0
4.160571583E0,-5.671050072E0,6.949050426E0,-5.052000046E0
4.163105121E0,-5.734050274E0,6.790950298E0,-5.008950233E0
4.165638971E0,-5.863050461E0,6.739950180E0,-5.140950203E0
4.168172511E0,-5.805000305E0,6.637050152E0,-5.161950111E0
4.170706355E0,-5.781000137E0,6.556050301E0,-5.194050312E0
4.173239896E0,-5.746050358E0,6.526950359E0,-5.158050060E0
4.175773682E0,-5.671050072E0,6.586950302E0,-5.164950371E0
4.178307299E0,-5.587050438E0,6.634950161E0,-5.134050369E0
4.180841067E0,-5.470050335E0,6.676050186E0,-5.149950027E0
4.183374684E0,-5.350050449E0,6.769050121E0,-5.188950062E0
4.185908490E0,-5.250000477E0,6.819000244E0,-5.253000259E0
4.188442108E0,-5.187000275E0,6.894000530E0,-5.253000259E0
4.190975875E0,-5.250000477E0,7.032000542E0,-5.191050053E0
4.193509415E0,-5.238000393E0,7.099950314E0,-5.091000080E0
4.196043259E0,-5.353050232E0,7.234050274E0,-4.948950291E0
4.198576800E0,-5.482050419E0,7.303050518E0,-4.818000317E0
4.201110644E0,-5.461050034E0,7.309950352E0,-4.717050076E0
4.203644185E0,-5.479950428E0,7.411050320E0,-4.707000256E0
4.206177814E0,-5.520000458E0,7.393950462E0,-4.597050190E0
4.208711581E0,-5.359950066E0,7.333950520E0,-4.485000134E0
4.211245427E0,-5.271000385E0,7.365000248E0,-4.312050343E0
4.213778968E0,-5.143950462E0,7.429950237E0,-4.207050323E0
4.216312612E0,-5.049000263E0,7.459050179E0,-4.204050064E0
4.218846379E0,-4.948050022E0,7.525950432E0,-4.261950016E0
4.221379997E0,-4.912050247E0,7.588050365E0,-4.363049984E0
4.223913764E0,-4.744050026E0,7.633950233E0,-4.441950321E0
4.226447396E0,-4.629000187E0,7.621950150E0,-4.510950089E0
4.228981164E0,-4.627050400E0,7.600050449E0,-4.630950451E0
4.231514781E0,-4.564949989E0,7.581000328E0,-4.674000263E0
4.234048320E0,-4.392000198E0,7.603050232E0,-4.663950443E0
4.236582091E0,-4.087950230E0,7.588050365E0,-4.638000011E0
4.239115708E0,-3.988050222E0,7.579050541E0,-4.588050365E0
4.241649475E0,-4.189050198E0,7.558950424E0,-4.432050228E0
4.244183093E0,-4.360949993E0,7.528050423E0,-4.256999969E0
4.246716894E0,-4.513950348E0,7.483050346E0,-3.994050264E0
4.249250511E0,-4.534049988E0,7.464000225E0,-3.997950077E0
4.251784050E0,-4.516950130E0,7.528050423E0,-4.051050186E0
4.254317894E0,-4.528950214E0,7.528050423E0,-3.960000277E0
4.256851668E0,-4.522050381E0,7.465950489E0,-3.936000109E0
4.259385286E0,-4.476000309E0,7.405950546E0,-4.019999981E0
4.261918824E0,-4.402050018E0,7.279050350E0,-3.891000271E0
4.264452668E0,-4.354050159E0,7.171050549E0,-3.766050100E0
4.266986199E0,-4.228950024E0,7.072950363E0,-4.116000175E0
4.269519966E0,-4.194000244E0,7.048950195E0,-4.702950001E0
4.272053583E0,-4.440000057E0,6.886050224E0,-4.606950283E0
4.274587351E0,-4.584000111E0,6.661050320E0,-4.264050007E0
4.277120983E0,-4.633950233E0,6.534000397E0,-4.306950092E0
4.279654750E0,-4.741950035E0,6.466950417E0,-4.434000015E0
4.282188368E0,-4.777950287E0,6.510000229E0,-4.540050030E0
4.284722135E0,-4.764000416E0,6.642000198E0,-4.482000351E0
4.287255752E0,-4.620000362E0,6.700050354E0,-4.477050304E0
4.289789520E0,-4.471050262E0,6.679950237E0,-4.578000069E0
4.292323060E0,-4.582050323E0,6.654000282E0,-4.534950256E0
4.294856904E0,-4.771050453E0,6.766950130E0,-4.273950100E0
4.297390449E0,-4.869000435E0,6.906000137E0,-4.279050350E0
4.299924064E0,-4.990950108E0,6.943950176E0,-4.285950184E0
4.302457831E0,-5.130000114E0,7.027950287E0,-4.183050156E0
4.304991449E0,-5.262000084E0,7.159050465E0,-4.117949963E0
4.307525207E0,-5.299950123E0,7.417950153E0,-4.108950138E0
4.310058824E0,-5.319000244E0,7.582950592E0,-4.081950188E0
4.312592592E0,-5.377050400E0,7.686000347E0,-4.019999981E0
4.315126209E0,-5.310000420E0,7.785000324E0,-4.264050007E0
4.317659976E0,-5.413050175E0,7.734000206E0,-4.044000149E0
4.320193517E0,-5.358000278E0,7.642950535E0,-4.024950027E0
4.322727361E0,-5.247000217E0,7.576050282E0,-4.176000118E0
4.325260978E0,-5.095950127E0,7.464000225E0,-4.366950035E0
4.327794526E0,-5.008050442E0,7.236000538E0,-4.456050396E0
4.330328293E0,-4.914000034E0,6.967950344E0,-4.624050140E0
4.332861910E0,-4.858950138E0,6.774000168E0,-4.947000027E0
4.335395678E0,-5.001000404E0,6.549000263E0,-4.933050156E0
4.337929285E0,-5.062950134E0,6.364050388E0,-4.918050289E0
4.340463052E0,-5.161050320E0,6.336000443E0,-5.167050362E0
4.342996670E0,-5.404950142E0,6.429000378E0,-5.155050278E0
4.345530437E0,-5.772000313E0,6.580050468E0,-4.771950245E0
4.348064059E0,-5.785950184E0,6.751950264E0,-4.518000126E0
4.350597598E0,-5.662050247E0,6.952950478E0,-4.528050423E0
4.353131442E0,-5.877000332E0,7.191000462E0,-4.256999969E0
4.355665211E0,-6.001950264E0,7.306050301E0,-3.963000298E0
4.358198751E0,-6.097950459E0,7.368000507E0,-3.819000244E0
4.360732367E0,-6.222000122E0,7.437000275E0,-3.727950096E0
4.363266134E0,-6.555000305E0,7.441950321E0,-3.519000053E0
4.365799752E0,-6.124050140E0,7.456050396E0,-4.027050018E0
4.368333519E0,-5.869950294E0,7.666950226E0,-4.546950340E0
4.370867136E0,-5.796000481E0,8.014050484E0,-3.912000179E0
4.373400903E0,-5.836950302E0,8.295000076E0,-4.048950195E0
4.375934521E0,-5.728950500E0,8.179950714E0,-4.381950378E0
4.378468288E0,-6.142950058E0,8.110050201E0,-3.991050243E0
4.381001828E0,-6.334950447E0,8.005050659E0,-3.582000256E0
4.383535673E0,-5.965950489E0,7.879950523E0,-3.706050158E0
4.386069290E0,-5.590050220E0,7.785000324E0,-4.036950111E0
4.388602828E0,-5.439000130E0,7.777050495E0,-4.078050137E0
4.391136596E0,-5.437050343E0,7.650000572E0,-4.092000008E0
4.393670213E0,-5.391000271E0,7.603050232E0,-4.164000034E0
4.396203980E0,-5.407950401E0,7.441950321E0,-4.032000065E0
4.398737593E0,-5.259000301E0,7.353000164E0,-4.030050278E0
4.401271360E0,-5.242950439E0,7.312950134E0,-3.843000174E0
4.403804977E0,-5.134950161E0,7.276950359E0,-3.856950283E0
4.406338745E0,-5.154000282E0,7.183050156E0,-3.976950169E0
4.408872357E0,-5.242950439E0,7.000950336E0,-3.928950071E0
4.411406124E0,-5.164050102E0,6.946050167E0,-3.904950142E0
4.413939742E0,-5.065050125E0,6.961050510E0,-3.766050100E0
4.416473280E0,-4.957950115E0,6.973050117E0,-3.618000269E0
4.419007052E0,-4.893000126E0,7.048950195E0,-3.570000172E0
4.421540670E0,-4.669950008E0,7.032000542E0,-3.940950155E0
4.424074514E0,-4.993050098E0,7.104000568E0,-3.778050184E0
4.426608054E0,-5.416950226E0,7.198050499E0,-3.130950212E0
4.429141832E0,-5.551950455E0,7.284000397E0,-3.463950157E0
4.431675491E0,-5.358000278E0,7.234050274E0,-3.778050184E0
4.434209164E0,-5.119950294E0,7.267050266E0,-3.891000271E0
4.436742834E0,-5.002950191E0,7.444050312E0,-4.003050327E0
4.439276601E0,-4.668000221E0,7.564050198E0,-3.991050243E0
4.441810218E0,-4.356000423E0,7.569000244E0,-3.874050140E0
4.444343757E0,-4.177050114E0,7.603050232E0,-3.832950115E0
4.446877519E0,-4.000050068E0,7.561950207E0,-3.852000237E0
4.449411136E0,-3.798000097E0,7.488000393E0,-3.892950296E0
4.451944980E0,-3.832050085E0,7.429950237E0,-3.904950142E0
4.454478521E0,-3.766950130E0,7.396950245E0,-3.928950071E0
4.457012288E0,-3.556050062E0,7.300950527E0,-3.912000179E0
4.459545906E0,-3.421950102E0,7.255050182E0,-3.907050133E0
4.462079673E0,-3.348000050E0,7.327050209E0,-3.958050251E0
4.464613290E0,-3.183000088E0,7.365000248E0,-4.018050194E0
4.467147062E0,-3.067950249E0,7.372950554E0,-4.054049969E0
4.469680680E0,-2.994000196E0,7.357950211E0,-3.967050076E0
4.472214447E0,-2.890950203E0,7.392000198E0,-3.886050224E0
4.474747988E0,-2.827950239E0,7.396950245E0,-3.814050198E0
4.477281832E0,-2.902950048E0,7.380000114E0,-3.795000076E0
4.479815372E0,-3.015000105E0,7.341000557E0,-3.843000174E0
4.482348988E0,-3.219000101E0,7.237950325E0,-3.915000200E0
4.484882755E0,-3.517950058E0,7.120950222E0,-4.063050270E0
4.487416386E0,-3.802950144E0,7.009050369E0,-4.195050240E0
4.489950153E0,-3.967950106E0,6.874050140E0,-4.285950184E0
4.492483771E0,-4.050000191E0,6.787950516E0,-4.351050377E0
4.495017538E0,-3.841050148E0,6.738000393E0,-4.372050285E0
4.497551136E0,-3.564000130E0,6.786000252E0,-4.348050117E0
4.500084675E0,-3.408000231E0,6.870000362E0,-4.264050007E0
4.502618442E0,-3.430050135E0,6.973050117E0,-4.180050373E0
4.505152060E0,-3.585000277E0,7.048950195E0,-4.201950073E0
4.507685899E0,-3.613950253E0,7.140000343E0,-4.245000362E0
4.510219439E0,-3.624000072E0,7.339050293E0,-4.233000278E0
4.512753206E0,-3.661950111E0,7.428000450E0,-4.267050266E0
4.515286824E0,-3.742950201E0,7.411050320E0,-4.458000183E0
4.517820582E0,-3.637950182E0,7.473000526E0,-4.590000153E0
4.520354199E0,-3.513000250E0,7.531050205E0,-4.540050030E0
4.522887967E0,-3.448950052E0,7.591050148E0,-4.485000134E0
4.525421584E0,-3.468000174E0,7.690950394E0,-4.414950371E0
4.527955346E0,-3.508950233E0,7.822950363E0,-4.318950176E0
4.530488887E0,-3.658950090E0,7.897050381E0,-4.249950409E0
4.533022500E0,-3.858000278E0,7.999950409E0,-4.183050156E0
4.535556346E0,-4.087950230E0,8.026050568E0,-4.303050041E0
4.538089872E0,-4.324950218E0,8.062050819E0,-4.351050377E0
4.540623639E0,-4.503000259E0,8.103000641E0,-4.393949986E0
4.543157256E0,-4.641000271E0,8.163000107E0,-4.260000229E0
4.545691024E0,-4.648950100E0,8.224950790E0,-4.279050350E0
4.548224651E0,-4.717950344E0,8.248950005E0,-4.223999977E0
4.550758418E0,-4.816050053E0,8.359050751E0,-4.288050175E0
4.553292036E0,-4.825950146E0,8.467050552E0,-4.357950211E0
4.555825803E0,-4.597949982E0,8.472000122E0,-4.327050209E0
4.558359425E0,-4.375950336E0,8.343000412E0,-4.420050144E0
4.560893193E0,-4.264950275E0,8.248950005E0,-4.438950062E0
4.563426810E0,-4.213050365E0,8.146050453E0,-4.497000217E0
4.565960348E0,-4.312950134E0,8.029050827E0,-4.614000320E0
4.568494111E0,-3.961050272E0,7.843950272E0,-4.851000309E0
4.571027728E0,-3.640050173E0,7.849050522E0,-4.963950157E0
4.573561495E0,-3.171000242E0,7.831950188E0,-5.337000370E0
4.576095113E0,-3.001050234E0,7.693950176E0,-5.458950043E0
4.578628865E0,-3.192000151E0,7.710000515E0,-5.458950043E0
4.581162482E0,-3.409950256E0,7.725000381E0,-5.485950470E0
4.583696249E0,-3.565950155E0,7.561950207E0,-5.401950359E0
4.586229867E0,-3.703050137E0,7.521000385E0,-5.272950172E0
4.588763639E0,-3.636000156E0,7.713000298E0,-5.299050331E0
4.591297257E0,-3.681000233E0,7.806000233E0,-5.167050362E0
4.593831024E0,-3.549000263E0,7.938000202E0,-5.079000473E0
4.596364564E0,-3.223950148E0,8.011950493E0,-5.158050060E0
4.598898169E0,-3.190050125E0,8.058000565E0,-5.074050426E0
4.601431938E0,-3.195000172E0,8.017050743E0,-4.995000362E0
4.603965555E0,-3.226050138E0,8.083950043E0,-5.038050175E0
4.606499322E0,-3.339000225E0,8.175000191E0,-5.148000240E0
4.609032930E0,-3.328950167E0,8.235000610E0,-5.241000175E0
4.611566697E0,-3.037050247E0,8.272950172E0,-5.397000313E0
4.614100314E0,-2.914950132E0,8.218050003E0,-5.488050461E0
4.616634082E0,-2.575050116E0,8.182050705E0,-5.296950340E0
4.619167671E0,-2.026050091E0,8.083950043E0,-5.239050388E0
4.621701438E0,-1.789050102E0,8.065050125E0,-5.184000015E0
4.624234979E0,-1.714950085E0,8.113050461E0,-5.164950371E0
4.626768592E0,-1.462950110E0,8.019000053E0,-5.155050278E0
4.629302366E0,-1.144950032E0,7.861050606E0,-5.221950054E0
4.631835984E0,-1.126049995E0,7.653000355E0,-5.437950134E0
4.634369751E0,-8.929500580E-1,7.437000275E0,-5.401950359E0
4.636903368E0,-6.319500208E-1,7.210050106E0,-5.388000488E0
4.639437117E0,-6.010500193E-1,6.994050503E0,-5.349000454E0
4.641970734E0,-5.719500184E-1,6.939000130E0,-5.239050388E0
4.644504501E0,-5.629500151E-1,6.882000446E0,-5.155050278E0
4.647038119E0,-4.669500291E-1,6.886050224E0,-5.043000221E0
4.649571881E0,-4.669500291E-1,6.973050117E0,-5.032950401E0
4.652105421E0,-5.410500169E-1,7.003950119E0,-5.019000053E0
4.654639035E0,-5.340000391E-1,7.032000542E0,-4.899000168E0
4.657172804E0,-5.650500059E-1,7.027950287E0,-4.837050438E0
4.659706426E0,-4.960500300E-1,6.898050308E0,-4.726950169E0
4.662240194E0,-3.660000265E-1,6.481950283E0,-4.378950119E0
4.664773811E0,-2.419500053E-1,5.932950497E0,-4.237950325E0
4.667307578E0,-2.610000074E-1,5.956950188E0,-4.195050240E0
4.669841176E0,-2.820000052E-1,5.890050411E0,-4.093950272E0
4.672374943E0,-3.280500174E-1,5.860950470E0,-4.223999977E0
4.674908560E0,-3.210000098E-1,5.968950272E0,-4.279050350E0
4.677442328E0,-2.710500062E-1,6.072000504E0,-4.252050400E0
4.679975839E0,-2.539499998E-1,6.168000221E0,-4.177950382E0
4.682509452E0,-1.770000011E-1,6.253950119E0,-4.033950329E0
4.685043222E0,-6.900000572E-2,6.376050472E0,-3.972000122E0
4.687576839E0,8.100000024E-2,6.481950283E0,-3.879000187E0
4.690110597E0,1.450500041E-1,6.586950302E0,-3.759000063E0
4.692644215E0,1.840500087E-1,6.763950348E0,-3.700950146E0
4.695177982E0,2.290500104E-1,6.894000530E0,-3.699000120E0
4.697711599E0,1.980000138E-1,7.032000542E0,-3.654000282E0
4.700245386E0,1.570500135E-1,7.155000210E0,-3.618000269E0
4.702779003E0,1.549500078E-1,7.260000229E0,-3.550950050E0
4.705312770E0,2.700000107E-1,7.321950436E0,-3.613050222E0
4.707846311E0,3.270000219E-1,7.363050461E0,-3.739950180E0
4.710379914E0,3.850500286E-1,7.489950180E0,-3.799950123E0
4.712913683E0,4.999500215E-1,7.693950176E0,-3.840000153E0
4.715447529E0,4.639500082E-1,7.885050297E0,-3.771000147E0
4.717981070E0,2.509500086E-1,8.155950546E0,-3.745050192E0
4.720514660E0,1.279500127E-1,8.424000740E0,-3.727950096E0
4.723048428E0,1.800000109E-2,8.764050484E0,-3.775950193E0
4.725582045E0,-1.890000105E-1,9.037050247E0,-3.862050295E0
4.728115812E0,-4.360500276E-1,9.298050880E0,-3.895050287E0
4.730649445E0,-7.519500256E-1,9.564000130E0,-3.934050083E0
4.733183212E0,-1.090050101E0,9.700950623E0,-3.991050243E0
4.735716829E0,-1.399050117E0,9.760050774E0,-4.111050129E0
4.738250368E0,-1.729050040E0,9.825000763E0,-4.225950241E0
4.740784178E0,-2.008949995E0,9.910950661E0,-4.236000061E0
4.743317718E0,-2.320950031E0,1.002600002E1,-4.279050350E0
4.745851485E0,-2.553000212E0,1.008900070E1,-4.269000053E0
4.748385103E0,-2.638950109E0,1.005705070E1,-4.225950241E0
4.750918851E0,-2.833050251E0,1.008900070E1,-4.351050377E0
4.753452469E0,-3.157050133E0,1.010295010E1,-4.654950142E0
4.755986236E0,-3.589950085E0,1.009095001E1,-4.930050373E0
4.758519853E0,-3.904050112E0,1.007700062E1,-5.119050026E0
4.761053591E0,-4.009050369E0,1.003800011E1,-5.158050060E0
4.763587209E0,-4.190999985E0,9.954000473E0,-5.200950146E0
4.766120747E0,-4.797000408E0,9.768000603E0,-5.232000351E0
4.768654514E0,-5.214000225E0,9.535050392E0,-5.232000351E0
4.771188370E0,-4.597949982E0,9.016050339E0,-5.050050259E0
4.773721987E0,-3.781950235E0,8.527050018E0,-4.875000000E0
4.776255525E0,-2.979000092E0,7.938000202E0,-4.966050148E0
4.778789293E0,-3.013050079E0,7.588050365E0,-5.197950363E0
4.781322939E0,-3.070050240E0,7.279050350E0,-5.622000217E0
4.783856706E0,-2.686950207E0,6.999000549E0,-5.608050346E0
4.786390324E0,-2.424000025E0,7.056000233E0,-5.650950432E0
4.788924091E0,-2.110050201E0,7.006050110E0,-5.710950375E0
4.791457679E0,-1.714950085E0,7.023000240E0,-5.296950340E0
4.793991447E0,-1.506000042E0,7.120950222E0,-5.257950306E0
4.796524987E0,-1.216950059E0,7.060950279E0,-5.469000340E0
4.799058831E0,-8.689500690E-1,7.048950195E0,-5.409000397E0
4.801592372E0,-5.940000415E-1,7.102050304E0,-5.503050327E0
4.804125987E0,-2.610000074E-1,7.071000099E0,-5.737050056E0
4.806659754E0,-4.500000179E-2,7.083000183E0,-5.911950111E0
4.809193372E0,2.269500047E-1,7.138050556E0,-6.019950390E0
4.811727144E0,4.639500082E-1,7.261950493E0,-6.243000507E0
4.814260761E0,6.000000238E-1,7.351050377E0,-6.316950321E0
4.816794529E0,4.350000322E-1,7.464000225E0,-6.403050423E0
4.819328146E0,1.810500026E-1,7.582950592E0,-6.504000187E0
4.821861684E0,-7.200000435E-2,7.545000553E0,-6.424950123E0
4.824395529E0,-4.120500088E-1,7.441950321E0,-6.340950489E0
4.826929298E0,-8.620500565E-1,7.365000248E0,-6.336000443E0
4.829462915E0,-1.248000026E0,7.116000175E0,-6.120000362E0
4.831996488E0,-1.638000131E0,7.096950531E0,-6.135000229E0
4.834530255E0,-1.786950111E0,6.963000298E0,-6.076950073E0
4.837063872E0,-2.026050091E0,6.894000530E0,-5.802000046E0
4.839597640E0,-2.670000076E0,7.071000099E0,-5.767950058E0
4.842131271E0,-3.549000263E0,7.344000340E0,-5.895000458E0
4.844665038E0,-5.122950077E0,7.653000355E0,-5.989050388E0
4.847198656E0,-4.783050060E0,7.380000114E0,-6.208950520E0
4.849732194E0,-2.983950138E0,7.648050308E0,-5.902950287E0
4.852266052E0,-8.160000801E0,8.785950661E0,-6.015000343E0
4.854799821E0,-2.766000032E0,7.255050182E0,-6.925050259E0
4.857333439E0,2.317050219E0,6.807000160E0,-5.982000351E0
4.859866977E0,8.280000687E-1,7.629000187E0,-5.953050137E0
4.862400741E0,-7.201950550E0,8.398050308E0,-5.806950092E0
4.864934358E0,-7.113000393E0,7.669950485E0,-6.813000202E0
4.867468125E0,-6.900000095E0,7.297950268E0,-6.373950481E0
4.870001743E0,2.083050013E0,6.616050243E0,-7.699050426E0
4.872535485E0,-6.730500460E-1,8.070000648E0,-7.102050304E0
4.875069102E0,-7.669050217E0,8.553000450E0,-6.772050381E0
4.877602641E0,9.259500504E-1,7.063950539E0,-5.232000351E0
4.880136485E0,-8.488050461E0,8.497950554E0,-4.240050316E0
4.882670264E0,-7.635000229E0,7.930950165E0,-6.312000275E0
4.885203881E0,-4.218000412E0,7.576050282E0,-5.658000469E0
4.887737649E0,-7.798050404E0,8.314050674E0,-6.868050098E0
4.890271189E0,-6.066000462E0,8.005050659E0,-5.533950329E0
4.892804793E0,-2.290050030E0,7.381950378E0,-5.698950291E0
4.895338562E0,-2.320500165E-1,7.597950459E0,-4.485000134E0
4.897872179E0,-7.294950485E0,8.500950813E0,-4.096950054E0
4.900405946E0,-5.223000050E0,7.777050495E0,-4.267050266E0
4.902939579E0,-9.466950417E0,8.113050461E0,-3.309000254E0
4.905473346E0,-4.324950218E0,7.810950279E0,-5.143050194E0
4.908006963E0,-8.029950142E0,8.521950722E0,-5.016000271E0
4.910540731E0,-1.758000135E0,7.999950409E0,-5.661000252E0
4.913074338E0,-6.775050163E0,8.953050613E0,-4.831950188E0
4.915608105E0,-4.909950256E0,8.436000824E0,-5.206050396E0
4.918141646E0,-3.058050156E0,7.770000458E0,-4.693050385E0
4.920675259E0,-4.279950142E0,8.296950340E0,-5.377950191E0
4.923209043E0,1.168050051E0,7.713000298E0,-4.990050316E0
4.925742890E0,-2.955000162E0,8.685000420E0,-4.864950180E0
4.928276430E0,-5.592000484E0,9.067950249E0,-5.233950138E0
4.930810045E0,-6.888000488E0,9.031949997E0,-4.723950386E0
4.933343813E0,-5.029050350E0,8.292000771E0,-5.020950317E0
4.935877430E0,-4.480950356E0,8.320950508E0,-5.208000183E0
4.938411197E0,-5.049000263E0,8.719050407E0,-5.905050278E0
4.940944815E0,-3.427050114E0,8.185050011E0,-5.467050076E0
4.943478567E0,1.474050045E0,7.485000134E0,-4.353000164E0
4.946012107E0,-2.107050180E0,8.332950592E0,-4.330950260E0
4.948545721E0,-6.274950504E0,8.728050232E0,-4.369950294E0
4.951079490E0,-7.542000294E0,8.050050735E0,-3.975000143E0
4.953613112E0,-9.076950073E0,7.834950447E0,-4.333950043E0
4.956146880E0,-7.851000309E0,7.492050171E0,-4.935000420E0
4.958680497E0,-3.111000061E0,6.762000084E0,-6.007950306E0
4.961214264E0,5.481000423E0,6.160950184E0,-5.311050415E0
4.963747911E0,1.486050129E0,7.570950508E0,-4.389000416E0
4.966281678E0,-3.553950071E0,8.223000526E0,-4.297950268E0
4.968815295E0,-8.545050621E0,7.593000412E0,-3.141000032E0
4.971349062E0,-9.409950256E0,6.843000412E0,-3.117000103E0
4.973882660E0,-3.448950052E0,6.048000336E0,-4.317000389E0
4.976416198E0,-4.162050247E0,6.853050232E0,-5.236950397E0
4.978950043E0,-5.049000263E0,7.375050545E0,-6.252000332E0
4.981483583E0,-8.839500546E-1,6.498000145E0,-5.529000282E0
4.984017384E0,-4.855050087E0,6.634950161E0,-4.542000294E0
4.986550925E0,-3.267000198E0,6.673050404E0,-5.323050022E0
4.989084692E0,7.129500508E-1,5.991000175E0,-4.458000183E0
4.991618309E0,-3.565950155E0,6.712050438E0,-4.171050072E0
4.994152042E0,-6.447000504E0,7.365000248E0,-5.503050327E0
4.996685660E0,-5.995050430E0,6.702000141E0,-4.966050148E0
4.999219427E0,-1.067400074E1,7.096950531E0,-3.690000057E0
5.001753044E0,-4.285050392E0,6.400050163E0,-5.364000320E0
5.004286822E0,-2.076000214E0,6.421950340E0,-4.846050262E0
5.006820362E0,-2.244000196E0,6.874050140E0,-4.662000179E0
5.009354206E0,-1.260000110E0,7.075950146E0,-3.975000143E0
5.011887824E0,-2.911950111E0,7.204950333E0,-2.746050119E0
5.014421601E0,-9.063000679E0,8.077050209E0,-2.599950075E0
5.016955141E0,-1.032495022E1,7.983000278E0,-3.487950087E0
5.019488755E0,-3.513000250E0,6.913050175E0,-4.057950020E0
5.022022524E0,-4.723050117E0,7.437000275E0,-3.630000114E0
5.024556136E0,-3.133050203E0,7.906950474E0,-4.414950371E0
5.027089904E0,-4.717950344E0,8.458050728E0,-3.984000206E0
5.029623521E0,-4.609950066E0,8.092950821E0,-3.277950048E0
5.032157288E0,-3.480000257E0,7.545000553E0,-2.425050020E0
5.034690829E0,-5.928000450E0,8.029050827E0,-2.523000002E0
5.037224673E0,-9.352050781E0,8.721000671E0,-3.493050098E0
5.039758290E0,-8.742000580E0,8.521950722E0,-3.927000284E0
5.042292058E0,-2.895000219E0,7.285950184E0,-4.021950245E0
5.044825613E0,-2.212949991E0,7.468050480E0,-3.807000160E0
5.047359226E0,-4.018949986E0,8.374050140E0,-3.795000076E0
5.049892996E0,-4.888050079E0,8.545949936E0,-3.385050058E0
5.052426613E0,-5.512950420E0,8.266050339E0,-2.752950191E0
5.054960356E0,-6.222000122E0,8.074049950E0,-3.093000174E0
5.057493974E0,-6.331950188E0,7.995000362E0,-3.553050280E0
5.060027741E0,-5.905950069E0,7.993050575E0,-3.577050209E0
5.062561358E0,-5.508000374E0,7.987950325E0,-3.586950064E0
5.065094911E0,-5.242950439E0,7.999950409E0,-3.739950180E0
5.067628755E0,-5.077050209E0,7.939950466E0,-3.759000063E0
5.070162524E0,-5.056050301E0,7.753050327E0,-3.759000063E0
5.072696142E0,-5.166000366E0,7.552050591E0,-3.823950291E0
5.075229704E0,-5.379000187E0,7.441950321E0,-3.828000069E0
5.077763471E0,-5.484000206E0,7.413000584E0,-3.799950123E0
5.080297089E0,-5.560950279E0,7.392000198E0,-3.787950277E0
5.082830856E0,-5.449050426E0,7.384950161E0,-3.694050074E0
5.085364469E0,-5.295000076E0,7.360950470E0,-3.649050236E0
5.087898237E0,-5.110950470E0,7.341000557E0,-3.595950127E0
5.090431854E0,-4.945950031E0,7.276950359E0,-3.570000172E0
5.092965621E0,-4.873950005E0,7.138050556E0,-3.553050280E0
5.095499224E0,-4.845000267E0,7.003950119E0,-3.589050055E0
5.098032991E0,-4.800000191E0,6.823950291E0,-3.655950069E0
5.100566608E0,-4.639050007E0,6.568050385E0,-3.763950109E0
5.103100147E0,-4.488000393E0,6.448050499E0,-3.795000076E0
5.105633909E0,-4.455000401E0,6.405000210E0,-3.892950296E0
5.108167526E0,-4.464000225E0,6.400050163E0,-3.924000263E0
5.110701370E0,-4.456950188E0,6.379050255E0,-4.057950020E0
5.113235140E0,-4.432950020E0,6.415050507E0,-4.104000092E0
5.115768661E0,-4.440000057E0,6.546000481E0,-4.165950298E0
5.118302277E0,-4.392000198E0,6.642000198E0,-4.189949989E0
5.120836044E0,-4.452000141E0,6.712050438E0,-4.233000278E0
5.123369661E0,-4.459050179E0,6.733050346E0,-4.152000427E0
5.125903404E0,-4.492950439E0,6.747000217E0,-4.066050053E0
5.128437022E0,-4.788000107E0,6.835950375E0,-3.867000103E0
5.130970789E0,-5.086950302E0,6.799950123E0,-3.577050209E0
5.133504406E0,-5.310000420E0,7.083000183E0,-3.402000189E0
5.136037950E0,-4.998000145E0,7.413000584E0,-3.487950087E0
5.138571717E0,-6.556950092E0,7.846950531E0,-3.486000061E0
5.141105563E0,-1.232700062E1,9.291000366E0,-3.579000235E0
5.143639104E0,-7.110000253E-1,6.573000431E0,-5.304000378E0
5.146172757E0,-9.105000645E-2,5.794050217E0,-4.530000210E0
5.148706524E0,-2.128950119E0,6.520050526E0,-5.646000385E0
5.151240142E0,-4.246050358E0,7.360950470E0,-5.203050137E0
5.153773909E0,-3.315000057E0,7.236000538E0,-3.237000227E0
5.156307512E0,-5.164050102E0,7.222050190E0,-2.005950212E0
5.158841280E0,-1.154400063E1,8.493000031E0,-1.591050029E0
5.161374897E0,-2.649000168E0,6.193950176E0,-2.988000154E0
5.163908435E0,1.053000093E0,4.738050461E0,-3.519000053E0
5.166442280E0,-3.039000034E0,6.526950359E0,-4.594950199E0
5.168976049E0,-3.013050079E0,7.192950249E0,-5.146050453E0
5.171509666E0,-2.764050245E0,7.152000427E0,-4.069950104E0
5.174043205E0,-3.283050060E0,6.901050091E0,-2.760000229E0
5.176576938E0,-4.177050114E0,6.853050232E0,-2.724000216E0
5.179110555E0,-5.257050037E0,6.859950542E0,-2.911050081E0
5.181644323E0,-5.689950466E0,7.171050549E0,-3.016950130E0
5.184177940E0,-5.518050194E0,7.276950359E0,-3.237000227E0
5.186711707E0,-5.179950237E0,7.234050274E0,-3.442950249E0
5.189245325E0,-4.716000080E0,7.401000500E0,-3.427950144E0
5.191779092E0,-5.134950161E0,7.789050579E0,-3.169950247E0
5.194312632E0,-6.652950287E0,8.290050507E0,-2.722050190E0
5.196846462E0,-8.392050743E0,8.674950600E0,-2.611950159E0
5.199380080E0,-8.181000710E0,8.781000137E0,-2.530050039E0
5.201913847E0,-1.057950020E0,6.676050186E0,-3.108000040E0
5.204447388E0,-4.999500215E-1,6.493950367E0,-3.523950100E0
5.206980991E0,-5.179950237E0,8.137050629E0,-3.639000177E0
5.209514760E0,-6.486000538E0,8.308950424E0,-2.920950174E0
5.212048378E0,-5.146950245E0,7.273950577E0,-2.241000175E0
5.214582145E0,-4.480950356E0,6.609000206E0,-1.984050035E0
5.217115767E0,-4.680000305E0,6.580050468E0,-2.109000206E0
5.219649534E0,-5.259000301E0,7.090050220E0,-2.262000084E0
5.222183152E0,-4.723050117E0,7.306050301E0,-2.142000198E0
5.224716919E0,-4.543050289E0,7.240950108E0,-2.437050104E0
5.227250526E0,-4.900050163E0,7.387050152E0,-2.695950031E0
5.229784294E0,-5.154000282E0,7.437000275E0,-2.959050179E0
5.232317834E0,-5.251950264E0,7.429950237E0,-2.983050108E0
5.234851448E0,-5.187000275E0,7.315050125E0,-2.794050217E0
5.237385203E0,-5.080050468E0,7.339050293E0,-2.707950115E0
5.239918820E0,-5.251950264E0,7.507050514E0,-2.614050150E0
5.242452664E0,-5.461050034E0,7.512000561E0,-2.245050192E0
5.244986205E0,-6.129000187E0,7.729050159E0,-2.370000124E0
5.247519982E0,-6.795000553E0,7.974000454E0,-2.668950081E0
5.250053599E0,-7.057950497E0,8.719050407E0,-2.367000103E0
5.252587367E0,-1.033905029E1,1.011195087E1,-2.190000057E0
5.255120984E0,-4.869000435E0,8.872050285E0,-2.929950237E0
