"Time (s)","Gyroscope x (rad/s)","Gyroscope y (rad/s)","Gyroscope z (rad/s)"
3.828142700E-2,-4.867500067E-2,-2.076249942E-2,-7.603749633E-2
4.081233800E-2,-4.331250116E-2,-2.296249941E-2,-7.383749634E-2
4.334610800E-2,-3.368749842E-2,-2.612499893E-2,-7.177499682E-2
4.587972300E-2,-2.942499891E-2,-2.722499892E-2,-6.531249732E-2
4.841349200E-2,-2.736249939E-2,-2.928750031E-2,-5.898749828E-2
5.094711700E-2,-1.883750036E-2,-3.355000168E-2,-5.362499878E-2
5.348088600E-2,-1.567500085E-2,-3.464999795E-2,-5.046249926E-2
5.601442600E-2,-8.249999955E-3,-3.464999795E-2,-4.936249927E-2
5.854827000E-2,-3.987499978E-3,-3.575000167E-2,-4.303750023E-2
6.108189300E-2,-6.874999963E-4,-3.355000168E-2,-3.767500073E-2
6.361543100E-2,2.474999987E-3,-3.464999795E-2,-3.657500073E-2
6.614919800E-2,2.474999987E-3,-3.671250120E-2,-3.547500074E-2
6.868281600E-2,2.474999987E-3,-4.097500071E-2,-3.231250122E-2
7.121660700E-2,3.574999981E-3,-3.781250119E-2,-3.341250122E-2
7.375022500E-2,5.637499969E-3,-3.671250120E-2,-3.341250122E-2
7.628376300E-2,4.537499975E-3,-3.244999796E-2,-3.341250122E-2
7.881753000E-2,4.537499975E-3,-2.928750031E-2,-3.341250122E-2
8.135116700E-2,5.637499969E-3,-2.612499893E-2,-3.657500073E-2
8.388493400E-2,2.474999987E-3,-2.612499893E-2,-3.767500073E-2
8.641855100E-2,-1.787499990E-3,-2.612499893E-2,-3.767500073E-2
8.895231800E-2,-6.049999967E-3,-2.502499893E-2,-3.547500074E-2
9.148589700E-2,-1.031249948E-2,-2.722499892E-2,-3.451250121E-2
9.401966400E-2,-1.457499992E-2,-2.928750031E-2,-3.657500073E-2
9.655328100E-2,-1.773750037E-2,-2.928750031E-2,-3.547500074E-2
9.908682000E-2,-2.089999989E-2,-2.818750031E-2,-3.657500073E-2
1.016205820E-1,-2.199999988E-2,-2.722499892E-2,-3.973750025E-2
1.041542000E-1,-2.626249939E-2,-2.818750031E-2,-4.303750023E-2
1.066880440E-1,-3.272499889E-2,-2.722499892E-2,-4.193750024E-2
1.092215840E-1,-3.795000166E-2,-2.612499893E-2,-4.826249927E-2
1.117553420E-1,-3.904999793E-2,-2.392499894E-2,-4.399999976E-2
1.142889600E-1,-4.221250117E-2,-2.502499893E-2,-4.399999976E-2
1.168227270E-1,-4.647500068E-2,-2.186249942E-2,-4.399999976E-2
1.193563440E-1,-4.963750020E-2,-1.979999989E-2,-4.399999976E-2
1.218901260E-1,-5.389999971E-2,-2.296249941E-2,-4.303750023E-2
1.244236660E-1,-5.719999969E-2,-2.186249942E-2,-4.509999976E-2
1.269572800E-1,-5.926249921E-2,-1.979999989E-2,-4.936249927E-2
1.294910490E-1,-5.926249921E-2,-1.333750039E-2,-5.046249926E-2
1.320246850E-1,-6.146249920E-2,-1.443750039E-2,-5.362499878E-2
1.345584520E-1,-6.036249921E-2,-1.333750039E-2,-5.362499878E-2
1.370920700E-1,-6.352499872E-2,-1.649999991E-2,-5.156249925E-2
1.396256080E-1,-6.242499873E-2,-1.443750039E-2,-5.156249925E-2
1.421594910E-1,-5.926249921E-2,-1.443750039E-2,-4.619999975E-2
1.446930320E-1,-6.036249921E-2,-1.649999991E-2,-4.826249927E-2
1.472267990E-1,-5.926249921E-2,-1.759999990E-2,-5.046249926E-2
1.497604170E-1,-5.926249921E-2,-1.649999991E-2,-4.729999974E-2
1.522941980E-1,-5.816249922E-2,-1.649999991E-2,-4.303750023E-2
1.548278150E-1,-5.389999971E-2,-1.649999991E-2,-3.973750025E-2
1.573615820E-1,-5.293750018E-2,-2.076249942E-2,-3.341250122E-2
1.598952000E-1,-5.389999971E-2,-1.979999989E-2,-3.121249937E-2
1.624287620E-1,-5.389999971E-2,-1.979999989E-2,-2.914999984E-2
1.649626060E-1,-4.867500067E-2,-1.649999991E-2,-2.172499895E-2
1.674961470E-1,-4.647500068E-2,-1.443750039E-2,-1.636249945E-2
1.700299140E-1,-4.441250116E-2,-7.974999957E-3,-1.099999994E-2
1.725635460E-1,-3.904999793E-2,-5.499999970E-4,-6.737499963E-3
1.750973130E-1,-4.015000165E-2,5.499999970E-4,-4.124999978E-4
1.776309300E-1,-3.904999793E-2,5.774999969E-3,5.912499968E-3
1.801646970E-1,-3.588749841E-2,7.974999957E-3,1.443750039E-2
1.826982330E-1,-3.368749842E-2,1.113750041E-2,2.186249942E-2
1.852318460E-1,-3.368749842E-2,1.223750040E-2,2.942499891E-2
1.877656150E-1,-3.052499890E-2,1.539999992E-2,3.464999795E-2
1.902992330E-1,-2.516249940E-2,1.746249944E-2,3.891250119E-2
1.928330100E-1,-2.309999987E-2,2.172499895E-2,4.001250118E-2
1.953666270E-1,-1.773750037E-2,2.502499893E-2,4.001250118E-2
1.979001660E-1,-1.457499992E-2,2.708750032E-2,4.743750021E-2
2.004340100E-1,-1.237499993E-2,2.928750031E-2,5.059999973E-2
2.029677980E-1,-1.141249947E-2,3.024999984E-2,5.059999973E-2
2.055013390E-1,-6.049999967E-3,2.928750031E-2,5.059999973E-2
2.080349540E-1,-3.987499978E-3,2.708750032E-2,4.963750020E-2
2.105687210E-1,-6.874999963E-4,2.928750031E-2,5.279999971E-2
2.131023490E-1,3.574999981E-3,2.598750032E-2,4.853750020E-2
2.156361160E-1,7.837500423E-3,2.502499893E-2,4.743750021E-2
2.181697330E-1,8.799999952E-3,2.502499893E-2,4.743750021E-2
2.207035010E-1,1.099999994E-2,1.856249943E-2,4.427500069E-2
2.232371320E-1,1.209999993E-2,1.966249943E-2,4.427500069E-2
2.257708990E-1,1.306249946E-2,1.966249943E-2,4.537500069E-2
2.283044400E-1,1.306249946E-2,1.856249943E-2,4.317500070E-2
2.308380530E-1,8.799999952E-3,1.856249943E-2,3.575000167E-2
2.333718270E-1,8.799999952E-3,2.708750032E-2,3.038750030E-2
2.359054450E-1,7.837500423E-3,3.135000169E-2,2.722499892E-2
2.384392120E-1,9.899999946E-3,3.451250121E-2,2.186249942E-2
2.409728290E-1,8.799999952E-3,3.877500072E-2,1.773750037E-2
2.435063490E-1,6.737499963E-3,3.987500072E-2,1.663750038E-2
2.460401930E-1,6.737499963E-3,3.561250120E-2,1.773750037E-2
2.485739620E-1,2.474999987E-3,2.928750031E-2,2.089999989E-2
2.511075030E-1,2.749999985E-4,2.282499894E-2,2.296249941E-2
2.536411130E-1,1.374999993E-3,1.856249943E-2,2.406249940E-2
2.561748800E-1,4.537499975E-3,1.429999992E-2,3.038750030E-2
2.587084980E-1,2.749999985E-4,8.937500417E-3,3.684999794E-2
2.612422650E-1,-2.887499984E-3,4.812499974E-3,4.221250117E-2
2.637759010E-1,-7.149999961E-3,-4.812499974E-3,4.537500069E-2
2.663094400E-1,-1.031249948E-2,-9.074999951E-3,4.537500069E-2
2.688432070E-1,-1.031249948E-2,-1.223750040E-2,4.001250118E-2
2.713770530E-1,-1.141249947E-2,-1.649999991E-2,3.575000167E-2
2.739106130E-1,-1.031249948E-2,-1.759999990E-2,3.368749842E-2
2.764442280E-1,-1.141249947E-2,-1.869999990E-2,3.148749843E-2
2.789779950E-1,-1.237499993E-2,-2.392499894E-2,3.038750030E-2
2.815116130E-1,-1.141249947E-2,-3.244999796E-2,3.575000167E-2
2.840453710E-1,-1.347499993E-2,-4.097500071E-2,3.575000167E-2
2.865789880E-1,-1.883750036E-2,-4.523750022E-2,3.464999795E-2
2.891125270E-1,-1.993750036E-2,-4.523750022E-2,2.612499893E-2
2.916462940E-1,-2.309999987E-2,-4.427500069E-2,1.443750039E-2
2.941801540E-1,-2.516249940E-2,-3.671250120E-2,2.749999985E-3
2.967136950E-1,-2.626249939E-2,-3.244999796E-2,-1.003750041E-2
2.992473100E-1,-2.626249939E-2,-2.928750031E-2,-2.172499895E-2
3.017810770E-1,-2.199999988E-2,-2.612499893E-2,-2.804999985E-2
3.043146760E-1,-2.199999988E-2,-2.612499893E-2,-3.547500074E-2
3.068484430E-1,-1.883750036E-2,-2.928750031E-2,-4.083750024E-2
3.093819830E-1,-1.457499992E-2,-3.575000167E-2,-4.303750023E-2
3.119155970E-1,-9.212499484E-3,-4.001250118E-2,-4.303750023E-2
3.144493610E-1,-4.949999973E-3,-4.317500070E-2,-4.399999976E-2
3.169829780E-1,1.374999993E-3,-4.523750022E-2,-4.399999976E-2
3.195167460E-1,6.737499963E-3,-4.427500069E-2,-4.509999976E-2
3.220503630E-1,1.306249946E-2,-4.097500071E-2,-4.509999976E-2
3.245841350E-1,2.158750035E-2,-3.671250120E-2,-4.399999976E-2
3.271176760E-1,2.584999986E-2,-3.781250119E-2,-4.399999976E-2
3.296515200E-1,3.121249937E-2,-3.781250119E-2,-4.509999976E-2
3.321850600E-1,3.657500073E-2,-3.671250120E-2,-4.399999976E-2
3.347186560E-1,4.289999977E-2,-3.891250119E-2,-4.193750024E-2
3.372524230E-1,4.716249928E-2,-3.781250119E-2,-4.509999976E-2
3.397860400E-1,5.348749831E-2,-3.355000168E-2,-4.399999976E-2
3.423198080E-1,5.678749830E-2,-3.781250119E-2,-4.193750024E-2
3.448534250E-1,5.995000154E-2,-3.671250120E-2,-3.657500073E-2
3.473869640E-1,6.104999781E-2,-3.355000168E-2,-2.914999984E-2
3.499208080E-1,6.201250106E-2,-3.244999796E-2,-2.488750033E-2
3.524545770E-1,6.531249732E-2,-3.148749843E-2,-2.062499896E-2
3.549881370E-1,7.273750007E-2,-2.818750031E-2,-1.746249944E-2
3.575217530E-1,7.699999958E-2,-2.612499893E-2,-1.099999994E-2
3.600555200E-1,8.016250283E-2,-2.502499893E-2,-1.099999994E-2
3.625891370E-1,8.552499861E-2,-2.296249941E-2,-1.003750041E-2
3.651229140E-1,8.758749813E-2,-2.296249941E-2,-7.837500423E-3
3.676565310E-1,9.295000136E-2,-2.076249942E-2,-4.674999975E-3
3.701900700E-1,9.927500039E-2,-2.186249942E-2,-4.124999978E-4
3.727238370E-1,1.024374962E-1,-2.076249942E-2,-2.612499986E-3
3.752576740E-1,1.035374999E-1,-1.443750039E-2,-1.512499992E-3
3.777912140E-1,1.109625027E-1,-7.974999957E-3,1.649999991E-3
3.803248300E-1,1.131625026E-1,-4.812499974E-3,1.649999991E-3
3.828585970E-1,1.131625026E-1,-2.749999985E-3,-4.124999978E-4
3.853922140E-1,1.131625026E-1,4.812499974E-3,-2.612499986E-3
3.879259820E-1,1.174250022E-1,7.974999957E-3,-3.574999981E-3
3.904595990E-1,1.216875017E-1,1.319999993E-2,-1.003750041E-2
3.929933660E-1,1.226499975E-1,2.076249942E-2,-1.636249945E-2
3.955269020E-1,1.291124970E-1,2.392499894E-2,-1.856249943E-2
3.980605150E-1,1.344749928E-1,2.818750031E-2,-2.378750034E-2
4.005942840E-1,1.407999992E-1,3.135000169E-2,-2.914999984E-2
4.031279020E-1,1.513874978E-1,4.097500071E-2,-3.547500074E-2
4.056616830E-1,1.641750038E-1,5.266249925E-2,-4.729999974E-2
4.081953000E-1,1.748999953E-1,6.215000153E-2,-5.898749828E-2
4.107290680E-1,1.919499934E-1,7.177499682E-2,-7.603749633E-2
4.132626850E-1,2.099625021E-1,8.456250280E-2,-9.198749810E-2
4.157962370E-1,2.270125002E-1,1.005124971E-1,-1.142624989E-1
4.183300050E-1,2.472250015E-1,1.132999957E-1,-1.344749928E-1
4.208636220E-1,2.739000022E-1,1.355749965E-1,-1.600500047E-1
4.233973890E-1,2.983750105E-1,1.526249945E-1,-1.887875050E-1
4.259309930E-1,3.195500076E-1,1.676124930E-1,-2.100999951E-1
4.284647600E-1,3.430624902E-1,1.856250018E-1,-2.377374917E-1
4.309983510E-1,3.621749878E-1,1.984124929E-1,-2.644124925E-1
4.335319960E-1,3.781250119E-1,1.995124966E-1,-2.888875008E-1
4.361413460E-1,3.887124956E-1,1.952500045E-1,-3.111625016E-1
4.385992710E-1,4.046624899E-1,1.952500045E-1,-3.260124922E-1
4.411330390E-1,4.153875113E-1,1.930499971E-1,-3.398999870E-1
4.436666540E-1,4.334000051E-1,1.941500008E-1,-3.495250046E-1
4.462004280E-1,4.494875073E-1,1.952500045E-1,-3.547500074E-1
4.487340440E-1,4.611749947E-1,1.930499971E-1,-3.612124920E-1
4.512678130E-1,4.728625119E-1,1.952500045E-1,-3.612124920E-1
4.538014280E-1,4.771249890E-1,1.887875050E-1,-3.580499887E-1
4.563349690E-1,4.877125025E-1,1.835625023E-1,-3.473249972E-1
4.588688130E-1,4.941749871E-1,1.792999953E-1,-3.378374875E-1
4.614023530E-1,4.993999898E-1,1.685750037E-1,-3.302749991E-1
4.639361210E-1,5.101249814E-1,1.516624987E-1,-3.302749991E-1
4.664697380E-1,5.153499842E-1,1.494625062E-1,-3.282124996E-1
4.690035050E-1,5.229125023E-1,1.505624950E-1,-3.250499964E-1
4.715371230E-1,5.335000157E-1,1.463000029E-1,-3.260124922E-1
4.740708900E-1,5.451874733E-1,1.473999918E-1,-3.271124959E-1
4.766044870E-1,5.622375011E-1,1.516624987E-1,-3.356375098E-1
4.791380260E-1,5.792874694E-1,1.505624950E-1,-3.473249972E-1
4.816718700E-1,5.963374972E-1,1.505624950E-1,-3.612124920E-1
4.842054100E-1,6.100875139E-1,1.440999955E-1,-3.760625124E-1
4.867391580E-1,6.293374896E-1,1.388749927E-1,-3.877499998E-1
4.892727750E-1,6.495500207E-1,1.463000029E-1,-4.027374983E-1
4.918065420E-1,6.612374783E-1,1.526249945E-1,-4.164874852E-1
4.943401600E-1,6.749874949E-1,1.590874940E-1,-4.281750023E-1
4.968739230E-1,6.909375191E-1,1.728374958E-1,-4.409624934E-1
4.994074630E-1,7.059249878E-1,1.973125041E-1,-4.591124952E-1
5.019410770E-1,7.144500017E-1,2.271499932E-1,-4.856500030E-1
5.044748460E-1,7.207750082E-1,2.644124925E-1,-5.260750055E-1
5.070084770E-1,7.154124975E-1,3.196874857E-1,-5.846499801E-1
5.095422450E-1,6.973999739E-1,3.878875077E-1,-6.645374894E-1
5.120758620E-1,6.760874987E-1,4.496249855E-1,-7.422249913E-1
5.146094000E-1,6.654999852E-1,4.932124913E-1,-8.028625250E-1
5.171432160E-1,6.590374708E-1,5.156250000E-1,-8.305000067E-1
5.196769850E-1,6.612374783E-1,5.282750130E-1,-8.230749965E-1
5.222105250E-1,6.697624922E-1,5.453249812E-1,-7.752249837E-1
5.247441410E-1,6.814500093E-1,5.570124984E-1,-6.910749674E-1
5.272779760E-1,6.984999776E-1,5.730999708E-1,-5.878124833E-1
5.298115160E-1,7.250375152E-1,5.805249810E-1,-4.793249965E-1
5.323452840E-1,7.580375075E-1,5.805249810E-1,-3.760625124E-1
5.348789010E-1,7.942000031E-1,5.730999708E-1,-2.983750105E-1
5.374126440E-1,8.325625062E-1,5.570124984E-1,-2.462625057E-1
5.399462620E-1,8.718875051E-1,5.282750130E-1,-2.228875011E-1
5.424800290E-1,9.006249905E-1,4.889499843E-1,-2.260500044E-1
5.450135690E-1,9.197375178E-1,4.485250115E-1,-2.483250052E-1
5.475471830E-1,9.261999726E-1,4.166249931E-1,-2.803624868E-1
5.500809520E-1,9.197375178E-1,3.878875077E-1,-3.111625016E-1
5.526145690E-1,9.059875011E-1,3.665750027E-1,-3.378374875E-1
5.551483370E-1,8.835750222E-1,3.559874892E-1,-3.623124957E-1
5.576819630E-1,8.538749814E-1,3.548874855E-1,-3.760625124E-1
5.602157300E-1,8.251374960E-1,3.517250121E-1,-3.856875002E-1
5.627493480E-1,7.910374999E-1,3.506250083E-1,-3.877499998E-1
5.652831150E-1,7.623000145E-1,3.400374949E-1,-3.877499998E-1
5.678166990E-1,7.367249727E-1,3.229874969E-1,-3.814249933E-1
5.703502380E-1,7.250375152E-1,2.974124849E-1,-3.729000092E-1
5.728840050E-1,7.218750119E-1,2.740375102E-1,-3.643749952E-1
5.754176220E-1,7.187125087E-1,2.538250089E-1,-3.495250046E-1
5.779513750E-1,7.250375152E-1,2.336124927E-1,-3.324750066E-1
5.804849920E-1,7.282000184E-1,2.154625058E-1,-3.174875081E-1
5.830187590E-1,7.357624769E-1,2.069374919E-1,-3.057999909E-1
5.855523000E-1,7.346624732E-1,1.941500008E-1,-2.877874970E-1
5.880861200E-1,7.378249764E-1,1.835625023E-1,-2.644124925E-1
5.906197370E-1,7.441499829E-1,1.739374995E-1,-2.419999987E-1
5.931532760E-1,7.495124936E-1,1.665125042E-1,-2.217874974E-1
5.956870430E-1,7.537750006E-1,1.707749963E-1,-1.984124929E-1
5.982206890E-1,7.591375113E-1,1.909874976E-1,-1.782000065E-1
6.007544570E-1,7.612000108E-1,2.197249979E-1,-1.611499935E-1
6.032880740E-1,7.676625252E-1,2.547875047E-1,-1.430000067E-1
6.058218410E-1,7.708249688E-1,2.942500114E-1,-1.270499974E-1
6.083554350E-1,7.782499790E-1,3.282124996E-1,-1.131625026E-1
6.108892020E-1,7.782499790E-1,3.559874892E-1,-9.941250086E-2
6.134227420E-1,7.867749929E-1,3.782624900E-1,-7.177499682E-2
6.159565860E-1,7.836124897E-1,4.092000127E-1,-3.135000169E-2
6.184901410E-1,7.750874758E-1,4.505875111E-1,7.012499962E-3
6.210237560E-1,7.645000219E-1,4.954124987E-1,4.001250118E-2
6.235575240E-1,7.378249764E-1,5.506874919E-1,7.617499679E-2
6.260911410E-1,7.016624808E-1,6.241124868E-1,1.017500013E-1
6.286248990E-1,6.675624847E-1,7.017999887E-1,1.156374961E-1
6.311585170E-1,6.293374896E-1,7.774249911E-1,1.368124932E-1
6.336920550E-1,5.887749791E-1,8.347625136E-1,1.560624987E-1
6.362258220E-1,5.526124835E-1,8.837124705E-1,1.698125005E-1
6.387596930E-1,5.110874772E-1,9.200124741E-1,1.847999990E-1
6.412933110E-1,4.728625119E-1,9.476500154E-1,2.017125040E-1
6.438268490E-1,4.387624860E-1,9.732249975E-1,2.230249941E-1
6.463606160E-1,4.005374908E-1,9.944000244E-1,2.422749996E-1
6.488942290E-1,3.653374910E-1,1.015712500E0,2.613874972E-1
6.514279960E-1,3.312374949E-1,1.049812436E0,2.762374878E-1
6.539616140E-1,3.004375100E-1,1.092299938E0,2.869625092E-1
6.564953810E-1,2.716999948E-1,1.121037483E0,2.986499965E-1
6.590289450E-1,2.472250015E-1,1.125300050E0,3.134999871E-1
6.615625590E-1,2.323749959E-1,1.122137547E0,3.305499852E-1
6.640963280E-1,2.259124964E-1,1.118975043E0,3.454000056E-1
6.666299450E-1,2.206874937E-1,1.090237498E0,3.550249934E-1
6.691636970E-1,2.142249942E-1,1.062600017E0,3.678124845E-1
6.716973150E-1,2.099625021E-1,1.051874995E0,3.806000054E-1
6.742310820E-1,2.003374994E-1,1.042387486E0,3.891249895E-1
6.767646990E-1,1.897500008E-1,1.026437521E0,3.976500034E-1
6.792985010E-1,1.706375033E-1,1.011450052E0,4.039750099E-1
6.818321180E-1,1.504250020E-1,1.002925038E0,4.113999903E-1
6.843656570E-1,1.333750039E-1,1.011450052E0,4.210250080E-1
6.868994240E-1,1.163249984E-1,1.007187486E0,4.369750023E-1
6.894330410E-1,9.184999764E-2,9.986624718E-1,4.508624971E-1
6.919668080E-1,6.627500057E-2,9.965999722E-1,4.657124877E-1
6.945004260E-1,3.753750026E-2,9.944000244E-1,4.933499992E-1
6.970341930E-1,2.474999987E-3,9.901375175E-1,5.209875107E-1
6.995678430E-1,-3.478749841E-2,9.795500040E-1,5.550875068E-1
7.021016110E-1,-7.315000147E-2,9.710249901E-1,5.912500024E-1
7.046352280E-1,-1.124750003E-1,9.593374729E-1,6.307125092E-1
7.071689950E-1,-1.454750001E-1,9.530124664E-1,6.646749973E-1
7.097026230E-1,-1.667875051E-1,9.604374766E-1,7.019374967E-1
7.122361610E-1,-1.838375032E-1,9.646999836E-1,7.360374928E-1
7.147700050E-1,-1.912624985E-1,9.615374804E-1,7.594124675E-1
7.173035460E-1,-1.912624985E-1,9.539750218E-1,7.764624953E-1
7.198372890E-1,-1.816374958E-1,9.646999836E-1,7.903500199E-1
7.223709060E-1,-1.667875051E-1,9.965999722E-1,7.977749705E-1
7.249046740E-1,-1.432749927E-1,1.046650052E0,8.029999733E-1
7.274382910E-1,-1.187999994E-1,1.097662449E0,8.009374738E-1
7.299720960E-1,-9.432499856E-2,1.140287519E0,7.998374701E-1
7.325057140E-1,-6.668750197E-2,1.178512454E0,7.955750227E-1
7.350392520E-1,-4.647500068E-2,1.210549951E0,7.913125157E-1
7.375730190E-1,-3.588749841E-2,1.223199964E0,7.807250023E-1
7.401069050E-1,-3.052499890E-2,1.222237468E0,7.690374851E-1
7.426404450E-1,-3.162499890E-2,1.213712454E0,7.540500164E-1
7.451740600E-1,-3.904999793E-2,1.202024937E0,7.360374928E-1
7.477078280E-1,-5.926249921E-2,1.187037468E0,7.093625069E-1
7.502414880E-1,-8.910000324E-2,1.172187448E0,6.711375117E-1
7.527752550E-1,-1.209999993E-1,1.169024944E0,6.359375119E-1
7.553088730E-1,-1.497374922E-1,1.161599994E0,5.997750163E-1
7.578426400E-1,-1.784749925E-1,1.144549966E0,5.636125207E-1
7.603761610E-1,-2.050125003E-1,1.129562497E0,5.231875181E-1
7.629097750E-1,-2.220624983E-1,1.116912484E0,4.870249927E-1
7.654435440E-1,-2.359499931E-1,1.099862456E0,4.592500031E-1
7.679771610E-1,-2.380124927E-1,1.083912492E0,4.295499921E-1
7.705109530E-1,-2.252250016E-1,1.067824960E0,4.019125104E-1
7.730445700E-1,-2.007499933E-1,1.042387486E0,3.720749915E-1
7.755783370E-1,-1.614249945E-1,1.005125046E0,3.401750028E-1
7.781119550E-1,-1.187999994E-1,9.838125110E-1,2.997500002E-1
7.806456780E-1,-6.984999776E-2,9.891750216E-1,2.443374991E-1
7.831792950E-1,-1.567500085E-2,1.012549996E0,1.698125005E-1
7.857128340E-1,3.863750026E-2,1.068925023E0,9.432499856E-2
7.882466010E-1,8.126249909E-2,1.136024952E0,1.237499993E-2
7.907804520E-1,1.205874979E-1,1.198724985E0,-6.751249731E-2
7.933139930E-1,1.472624987E-1,1.242449999E0,-1.409374923E-1
7.958476080E-1,1.652749926E-1,1.257300019E0,-2.100999951E-1
7.983813750E-1,1.652749926E-1,1.248775005E0,-2.664749920E-1
8.009149780E-1,1.482249945E-1,1.227462530E0,-3.091000021E-1
8.034487450E-1,1.163249984E-1,1.246712446E0,-3.324750066E-1
8.059823620E-1,6.737499684E-2,1.254137516E0,-3.207874894E-1
8.085161290E-1,1.099999994E-2,1.209450006E0,-2.547875047E-1
8.110496840E-1,-2.846249938E-2,1.151975036E0,-1.376374960E-1
8.135832970E-1,-6.462500244E-2,1.064662457E0,2.406249940E-2
8.161170670E-1,-9.006249905E-2,9.572749734E-1,2.092749923E-1
8.186506840E-1,-1.187999994E-1,8.540124893E-1,3.709749877E-1
8.211844370E-1,-1.656875014E-1,8.263750076E-1,4.837250113E-1
8.237180550E-1,-2.231625021E-1,8.688625097E-1,5.465624928E-1
8.262518220E-1,-2.774749994E-1,9.040625095E-1,5.678749681E-1
8.287854390E-1,-3.370124996E-1,8.731250167E-1,5.647125244E-1
8.313189870E-1,-4.072749913E-1,7.858124971E-1,5.359749794E-1
8.338528310E-1,-4.625499845E-1,6.826875210E-1,4.922499955E-1
8.363863710E-1,-5.062749982E-1,5.857499838E-1,4.401375055E-1
8.389201390E-1,-5.455999970E-1,5.037999749E-1,3.806000054E-1
8.414537230E-1,-5.743374825E-1,4.346374869E-1,3.081375062E-1
8.439874900E-1,-5.977125168E-1,3.995749950E-1,2.326499969E-1
8.465211080E-1,-6.212249994E-1,4.197874963E-1,1.570249945E-1
8.490548750E-1,-6.488624811E-1,4.624125063E-1,8.579999954E-2
8.515884720E-1,-6.637125015E-1,4.932124913E-1,3.038750030E-2
8.541222390E-1,-6.785625219E-1,4.985750020E-1,-2.612499986E-3
8.566558570E-1,-6.722375154E-1,4.613125026E-1,-1.209999993E-2
8.591896240E-1,-6.509249806E-1,4.006749988E-1,-1.099999994E-2
8.617231560E-1,-6.371750236E-1,3.856875002E-1,-4.124999978E-4
8.642567690E-1,-6.371750236E-1,3.921499848E-1,8.112499490E-3
8.667905380E-1,-6.551874876E-1,3.878875077E-1,8.112499490E-3
8.693241560E-1,-6.828249693E-1,3.686375022E-1,3.849999979E-3
8.718579000E-1,-7.084000111E-1,3.559874892E-1,-2.708750032E-2
8.743915170E-1,-7.137625217E-1,3.793624938E-1,-6.104999781E-2
8.769252840E-1,-6.956124902E-1,3.856875002E-1,-1.068374962E-1
8.794589020E-1,-6.711375117E-1,3.144625127E-1,-1.696749926E-1
8.819926920E-1,-6.434999704E-1,2.165624946E-1,-2.408999950E-1
8.845263090E-1,-6.158624887E-1,1.494625062E-1,-3.111625016E-1
8.870598480E-1,-5.934500098E-1,9.088750184E-2,-3.856875002E-1
8.895936150E-1,-5.743374825E-1,3.244999796E-2,-4.569124877E-1
8.921272290E-1,-5.594875216E-1,-3.464999795E-2,-5.186499953E-1
8.946609960E-1,-5.476624966E-1,-1.016125008E-1,-5.803874731E-1
8.971946130E-1,-5.392749906E-1,-1.590874940E-1,-6.315374970E-1
8.997283800E-1,-5.350124836E-1,-2.208250016E-1,-6.612374783E-1
9.022619830E-1,-5.381749868E-1,-2.677125037E-1,-6.676999927E-1
9.047957500E-1,-5.328124762E-1,-3.368749917E-1,-6.443250179E-1
9.073293670E-1,-5.242875218E-1,-4.347749949E-1,-6.080250144E-1
9.098631350E-1,-5.137000084E-1,-5.113624930E-1,-5.590749979E-1
9.123967470E-1,-5.062749982E-1,-5.571500063E-1,-5.101249814E-1
9.149302860E-1,-4.998124838E-1,-5.667750239E-1,-4.665375054E-1
9.174640530E-1,-5.083374977E-1,-5.454624891E-1,-4.303750098E-1
9.199976700E-1,-5.328124762E-1,-4.911499918E-1,-3.994374871E-1
9.225314700E-1,-5.658124685E-1,-4.411000013E-1,-3.718000054E-1
9.250650880E-1,-6.084374785E-1,-4.199250042E-1,-3.580499887E-1
9.275988550E-1,-6.540874839E-1,-4.081000090E-1,-3.569499850E-1
9.301323950E-1,-6.956124902E-1,-4.134624898E-1,-3.686375022E-1
9.326662350E-1,-7.371374965E-1,-4.230875075E-1,-3.931125104E-1
9.351998520E-1,-7.627124786E-1,-4.358749986E-1,-4.261125028E-1
9.377333900E-1,-7.732999921E-1,-4.603500068E-1,-4.697000086E-1
9.402671580E-1,-7.818250060E-1,-4.943124950E-1,-5.176874995E-1
9.428008000E-1,-7.914500237E-1,-5.145249963E-1,-5.590749979E-1
9.453345670E-1,-8.020374775E-1,-5.135625005E-1,-5.835499763E-1
9.478681850E-1,-8.170250058E-1,-5.050374866E-1,-6.006000042E-1
9.504019520E-1,-8.361374736E-1,-4.976125062E-1,-6.028000116E-1
9.529355730E-1,-8.520874977E-1,-4.985750020E-1,-5.825874805E-1
9.554693410E-1,-8.711999655E-1,-5.135625005E-1,-5.473874807E-1
9.580029580E-1,-8.893499970E-1,-5.422999859E-1,-5.026999712E-1
9.605364960E-1,-9.095624685E-1,-5.593500137E-1,-4.463250041E-1
9.630702400E-1,-9.158874750E-1,-5.550875068E-1,-3.867875040E-1
9.656038570E-1,-9.042000175E-1,-5.422999859E-1,-3.239499927E-1
9.681376240E-1,-8.711999655E-1,-5.230500102E-1,-2.664749920E-1
9.706712420E-1,-8.244500160E-1,-4.868874848E-1,-2.175250053E-1
9.732050190E-1,-7.669749856E-1,-4.305124879E-1,-1.685750037E-1
9.757386360E-1,-7.063375115E-1,-3.613499999E-1,-1.216875017E-1
9.782724040E-1,-6.531249881E-1,-2.964499891E-1,-7.919999957E-2
9.808059440E-1,-6.147624850E-1,-2.421374917E-1,-4.619999975E-2
9.833398070E-1,-5.860249996E-1,-1.878249943E-1,-1.952499896E-2
9.858734250E-1,-5.700749755E-1,-1.357125044E-1,5.912499968E-3
9.884071920E-1,-5.604500175E-1,-1.006499976E-1,2.186249942E-2
9.909407320E-1,-5.552250147E-1,-7.933750004E-2,2.722499892E-2
9.934743270E-1,-5.487625003E-1,-6.118749827E-2,3.368749842E-2
9.960080960E-1,-5.487625003E-1,-4.633750021E-2,4.963750020E-2
9.985417130E-1,-5.530250072E-1,-1.966249943E-2,5.816249922E-2
1.001075481E0,-5.519250035E-1,6.435000151E-2,3.038750030E-2
1.003609103E0,-5.296499729E-1,2.208250016E-1,-4.124999978E-4
1.006142870E0,-5.168625116E-1,2.547875047E-1,-5.774999969E-3
1.008676488E0,-4.977499843E-1,2.260500044E-1,-1.856249943E-2
1.011210255E0,-4.785000086E-1,2.186249942E-1,-2.914999984E-2
1.013743872E0,-4.764375091E-1,2.123000026E-1,-3.451250121E-2
1.016277411E0,-4.923875034E-1,1.813624948E-1,-3.767500073E-2
1.018811178E0,-5.179625154E-1,1.473999918E-1,-3.231250122E-2
1.021344795E0,-5.509625077E-1,1.005124971E-1,-1.856249943E-2
1.023878577E0,-5.806624889E-1,3.024999984E-2,2.749999985E-3
1.026412194E0,-6.073374748E-1,-3.148749843E-2,2.406249940E-2
1.028945961E0,-6.307125092E-1,-7.617499679E-2,4.221250117E-2
1.031479579E0,-6.434999704E-1,-1.271875054E-1,6.242499873E-2
1.034013112E0,-6.509249806E-1,-1.792999953E-1,7.933750004E-2
1.036546956E0,-6.520249844E-1,-2.070749998E-1,7.727500051E-2
1.039080725E0,-6.360750198E-1,-2.230249941E-1,7.727500051E-2
1.041614343E0,-6.221874952E-1,-2.336124927E-1,7.301250100E-2
1.044147877E0,-6.030749679E-1,-2.261874974E-1,6.132499874E-2
1.046681645E0,-5.796999931E-1,-1.942874938E-1,4.743750021E-2
1.049215262E0,-5.572875142E-1,-1.527625024E-1,3.368749842E-2
1.051749029E0,-5.317124724E-1,-1.101374999E-1,1.979999989E-2
1.054282656E0,-5.072374940E-1,-7.397499681E-2,3.849999979E-3
1.056816423E0,-4.860624969E-1,-3.575000167E-2,-1.636249945E-2
1.059350040E0,-4.604874849E-1,-5.499999970E-4,-3.341250122E-2
1.061883807E0,-4.402749836E-1,3.877500072E-2,-6.104999781E-2
1.064417353E0,-3.933874965E-1,1.260875016E-1,-7.177499682E-2
1.066951197E0,-3.497999907E-1,1.409374923E-1,-5.156249925E-2
1.069484737E0,-3.167999983E-1,8.992499858E-2,-4.729999974E-2
1.072018353E0,-2.954874933E-1,8.030000329E-2,-3.231250122E-2
1.074552101E0,-3.104749918E-1,9.198749810E-2,-1.319999993E-2
1.077085719E0,-3.529624939E-1,9.418749809E-2,4.949999973E-3
1.079619486E0,-4.072749913E-1,1.027124971E-1,2.516249940E-2
1.082153103E0,-4.647499919E-1,1.111000031E-1,3.795000166E-2
1.084686598E0,-5.339124799E-1,1.207249984E-1,3.795000166E-2
1.087220442E0,-5.902875066E-1,1.377750039E-1,2.832499892E-2
1.089754211E0,-6.329125166E-1,1.473999918E-1,1.237499993E-2
1.092287828E0,-6.583499908E-1,1.526249945E-1,8.112499490E-3
1.094821363E0,-6.733375192E-1,1.526249945E-1,1.017499994E-2
1.097355130E0,-6.744375229E-1,1.420374960E-1,1.347499993E-2
1.099888747E0,-6.679750085E-1,1.207249984E-1,1.759999990E-2
1.102422515E0,-6.659125090E-1,1.058750004E-1,2.406249940E-2
1.104956127E0,-6.659125090E-1,1.101374999E-1,3.891250119E-2
1.107489894E0,-6.744375229E-1,1.238875017E-1,6.022499874E-2
1.110023512E0,-6.978124976E-1,1.366750002E-1,8.470000327E-2
1.112557050E0,-7.211874723E-1,1.260875016E-1,1.176999956E-1
1.115090884E0,-7.382375002E-1,7.287500054E-2,1.603250057E-1
1.117624425E0,-7.552874684E-1,-2.296249941E-2,2.177999914E-1
1.120158192E0,-7.743999958E-1,-1.006499976E-1,2.719750106E-1
1.122691809E0,-7.946124673E-1,-1.379124969E-1,3.242250085E-1
1.125225602E0,-8.127624989E-1,-1.612875015E-1,3.592875004E-1
1.127759219E0,-8.276125193E-1,-1.676124930E-1,3.752374947E-1
1.130292986E0,-8.478249907E-1,-1.815000027E-1,3.900874853E-1
1.132826604E0,-8.776624799E-1,-1.963499933E-1,3.922874928E-1
1.135360385E0,-9.106624722E-1,-1.889249980E-1,3.826625049E-1
1.137893925E0,-9.414625168E-1,-1.581249982E-1,3.570874929E-1
1.140427770E0,-9.616749883E-1,-1.314499974E-1,3.177624941E-1
1.142961387E0,-9.733625054E-1,-1.260875016E-1,2.677125037E-1
1.145495150E0,-9.787250161E-1,-1.271875054E-1,2.113374919E-1
1.148028691E0,-9.809250236E-1,-1.218250021E-1,1.538625062E-1
1.150562304E0,-9.861499667E-1,-1.101374999E-1,1.017500013E-1
1.153096073E0,-9.904124737E-1,-8.992499858E-2,4.743750021E-2
1.155629704E0,-9.968749881E-1,-7.397499681E-2,-4.674999975E-3
1.158163471E0,-9.978374839E-1,-6.764999777E-2,-4.936249927E-2
1.160697088E0,-1.001137495E0,-6.875000149E-2,-8.772499859E-2
1.163230856E0,-1.009662509E0,-8.566249907E-2,-1.131625026E-1
1.165764497E0,-1.003200054E0,-9.528750181E-2,-1.313125044E-1
1.168298264E0,-9.915124774E-1,-1.027124971E-1,-1.440999955E-1
1.170831882E0,-9.809250236E-1,-1.006499976E-1,-1.504250020E-1
1.173365420E0,-9.627749920E-1,-1.240250021E-1,-1.472624987E-1
1.175899177E0,-9.585124850E-1,-1.623875052E-1,-1.504250020E-1
1.178432795E0,-9.616749883E-1,-1.464374959E-1,-1.526249945E-1
1.180966562E0,-9.616749883E-1,-1.186624989E-1,-1.419000030E-1
1.183500179E0,-9.649749994E-1,-1.101374999E-1,-1.227874979E-1
1.186033947E0,-9.713000059E-1,-8.992499858E-2,-1.099999994E-1
1.188567541E0,-9.733625054E-1,-7.191249728E-2,-9.198749810E-2
1.191101308E0,-9.702000022E-1,-7.617499679E-2,-7.493750006E-2
1.193634849E0,-9.585124850E-1,-7.397499681E-2,-6.215000153E-2
1.196168693E0,-9.468249679E-1,-5.912499875E-2,-5.568749830E-2
1.198702233E0,-9.351375103E-1,-3.781250119E-2,-5.788749829E-2
1.201235849E0,-9.212499857E-1,2.612499986E-3,-7.067500055E-2
1.203769616E0,-9.106624722E-1,1.003750041E-2,-6.957499683E-2
1.206303233E0,-8.904500008E-1,2.612499986E-3,-6.531249732E-2
1.208836977E0,-8.680375218E-1,-9.074999951E-3,-6.641250104E-2
1.211370594E0,-8.381999731E-1,-1.017499994E-2,-6.215000153E-2
1.213904361E0,-8.031374812E-1,-3.671250120E-2,-4.729999974E-2
1.216437902E0,-7.595499754E-1,-6.228749827E-2,-2.914999984E-2
1.218971741E0,-7.137625217E-1,-9.748750180E-2,-4.674999975E-3
1.221505358E0,-6.616500020E-1,-1.303499937E-1,2.186249942E-2
1.224038897E0,-6.073374748E-1,-1.644500047E-1,5.816249922E-2
1.226572664E0,-5.552250147E-1,-2.102375031E-1,1.017500013E-1
1.229106257E0,-5.051749945E-1,-2.602874935E-1,1.368124932E-1
1.231640024E0,-4.562250078E-1,-3.166624904E-1,1.592250019E-1
1.234173642E0,-4.104374945E-1,-3.559874892E-1,1.538625062E-1
1.236707409E0,-3.657499850E-1,-3.719374835E-1,1.134374961E-1
1.239241013E0,-3.316499889E-1,-3.730374873E-1,5.169999972E-2
1.241774551E0,-3.125374913E-1,-3.496625125E-1,-2.062499896E-2
1.244308395E0,-3.062124848E-1,-3.113000095E-1,-9.941250086E-2
1.246841936E0,-3.040125072E-1,-2.836624980E-1,-1.685750037E-1
1.249375794E0,-2.954874933E-1,-2.528625131E-1,-2.303124964E-1
1.251909334E0,-2.689499855E-1,-2.367749959E-1,-2.761000097E-1
1.254443101E0,-2.209624946E-1,-2.432374954E-1,-2.887499928E-1
1.256976719E0,-1.528999954E-1,-2.538250089E-1,-2.675749958E-1
1.259510496E0,-8.799999952E-2,-2.389750034E-1,-2.100999951E-1
1.262044113E0,-3.904999793E-2,-2.123000026E-1,-1.216875017E-1
1.264577881E0,-1.787499990E-3,-1.868624985E-1,-2.378750034E-2
1.267111421E0,2.804999985E-2,-1.516624987E-1,7.411249727E-2
1.269645054E0,5.142499879E-2,-8.359999955E-2,1.645874977E-1
1.272178900E0,7.796250284E-2,-1.127499994E-2,2.422749996E-1
1.274712669E0,1.109625027E-1,5.692499876E-2,3.081375062E-1
1.277246209E0,1.504250020E-1,1.440999955E-1,3.561249971E-1
1.279779839E0,1.929125041E-1,2.538250089E-1,3.943499923E-1
1.282313606E0,2.216500044E-1,4.049375057E-1,4.295499921E-1
1.284847223E0,2.429624945E-1,5.645750165E-1,4.688749909E-1
1.287380991E0,2.663374841E-1,6.975374818E-1,4.987125099E-1
1.289914632E0,2.898499966E-1,8.338000178E-1,5.252500176E-1
1.292448171E0,3.067624867E-1,9.891750216E-1,5.539875031E-1
1.294982015E0,3.206500113E-1,1.141250014E0,5.827249885E-1
1.297515555E0,3.334375024E-1,1.268025041E0,6.051374674E-1
1.300049365E0,3.482874930E-1,1.366887450E0,6.199874878E-1
1.302582906E0,3.621749878E-1,1.439350009E0,6.264500022E-1
1.305116673E0,3.781250119E-1,1.489262462E0,6.338750124E-1
1.307650290E0,3.929750025E-1,1.519099951E0,6.316750050E-1
1.310184063E0,4.100250006E-1,1.541512489E0,6.264500022E-1
1.312717680E0,4.217124879E-1,1.563787460E0,6.199874878E-1
1.315251447E0,4.419249892E-1,1.571212530E0,6.199874878E-1
1.317785065E0,4.654375017E-1,1.561725020E0,6.168249846E-1
1.320318837E0,4.908750057E-1,1.553200006E0,6.104999781E-1
1.322852377E0,5.196124911E-1,1.543575048E0,6.008750200E-1
1.325386222E0,5.494499803E-1,1.526525021E0,5.912500024E-1
1.327919762E0,5.781875253E-1,1.505212545E0,5.784624815E-1
1.330453363E0,6.089875102E-1,1.480737448E0,5.604500175E-1
1.332987131E0,6.452875137E-1,1.451037526E0,5.391374826E-1
1.335520748E0,6.792500019E-1,1.426562548E0,5.115000010E-1
1.338054515E0,7.090874910E-1,1.400987506E0,4.763000011E-1
1.340588152E0,7.389249802E-1,1.381875038E0,4.230875075E-1
1.343121919E0,7.602375150E-1,1.349837542E0,3.570874929E-1
1.345655459E0,7.761874795E-1,1.295662522E0,2.858625054E-1
1.348189304E0,7.856749892E-1,1.210549951E0,2.017125040E-1
1.350722873E0,7.964000106E-1,1.110450029E0,1.123374999E-1
1.353256717E0,8.006625175E-1,1.002925038E0,3.038750030E-2
1.355790258E0,7.995625138E-1,8.955374956E-1,-4.729999974E-2
1.358323873E0,7.995625138E-1,7.922750115E-1,-1.174250022E-1
1.360857630E0,8.069875240E-1,7.017999887E-1,-1.728374958E-1
1.363391248E0,8.123499751E-1,6.198499799E-1,-2.121624947E-1
1.365925015E0,8.271999955E-1,5.581125021E-1,-2.408999950E-1
1.368458632E0,8.388875127E-1,5.165874958E-1,-2.568500042E-1
1.370992409E0,8.570374846E-1,4.826250076E-1,-2.579500079E-1
1.373526026E0,8.826124668E-1,4.474250078E-1,-2.536875010E-1
1.376059793E0,9.017249942E-1,4.166249931E-1,-2.483250052E-1
1.378593411E0,9.156125188E-1,3.889875114E-1,-2.431000024E-1
1.381126930E0,9.293624759E-1,3.634124994E-1,-2.473624945E-1
1.383660697E0,9.389874935E-1,3.357749879E-1,-2.601499856E-1
1.386194315E0,9.421499968E-1,3.187249899E-1,-2.750000060E-1
1.388728082E0,9.464125037E-1,3.059374988E-1,-2.972750068E-1
1.391261714E0,9.464125037E-1,2.846249938E-1,-3.228499889E-1
1.393795481E0,9.464125037E-1,2.612499893E-1,-3.504875004E-1
1.396329099E0,9.453125000E-1,2.452999949E-1,-3.792249858E-1
1.398862637E0,9.367874861E-1,2.282499969E-1,-4.036999941E-1
1.401396419E0,9.240000248E-1,2.015749961E-1,-4.261125028E-1
1.403930265E0,9.070875049E-1,1.611499935E-1,-4.431625009E-1
1.406463805E0,8.846749663E-1,1.175625026E-1,-4.452250004E-1
1.408997421E0,8.601999879E-1,8.139999956E-2,-4.366999865E-1
1.411531212E0,8.251374960E-1,4.839999974E-2,-4.144249856E-1
1.414064829E0,7.899374962E-1,1.539999992E-2,-3.877499998E-1
1.416598596E0,7.495124936E-1,-2.296249941E-2,-3.590124846E-1
1.419132214E0,7.037249804E-1,-6.448750198E-2,-3.378374875E-1
1.421665967E0,6.590374708E-1,-1.091749966E-1,-3.185875118E-1
1.424199584E0,6.154500246E-1,-1.655499935E-1,-3.057999909E-1
1.426733123E0,5.728250146E-1,-2.325125039E-1,-2.983750105E-1
1.429266861E0,5.324000120E-1,-3.102000058E-1,-2.983750105E-1
1.431800513E0,5.036625266E-1,-3.869250119E-1,-3.057999909E-1
1.434334176E0,4.791874886E-1,-4.453625083E-1,-3.217499852E-1
1.436867861E0,4.547125101E-1,-4.848249853E-1,-3.504875004E-1
1.439401630E0,4.376625121E-1,-5.380374789E-1,-3.845874965E-1
1.441935248E0,4.259749949E-1,-6.252124906E-1,-4.101625085E-1
1.444469015E0,4.281750023E-1,-7.147250175E-1,-4.314749837E-1
1.447002627E0,4.387624860E-1,-7.774249911E-1,-4.474250078E-1
1.449536166E0,4.504500031E-1,-8.115249872E-1,-4.580124915E-1
1.452069933E0,4.717625082E-1,-8.252750039E-1,-4.665375054E-1
1.454603551E0,4.973374903E-1,-8.146874905E-1,-4.707999825E-1
1.457137278E0,5.292375088E-1,-7.859500051E-1,-4.761624932E-1
1.459670895E0,5.654000044E-1,-7.475875020E-1,-4.878500104E-1
1.462204662E0,6.037625074E-1,-7.104625106E-1,-5.048999786E-1
1.464738280E0,6.399250031E-1,-6.646749973E-1,-5.303375125E-1
1.467272047E0,6.632999778E-1,-6.103624701E-1,-5.570124984E-1
1.469805664E0,6.803500056E-1,-5.517874956E-1,-5.825874805E-1
1.472339432E0,6.920375228E-1,-4.922499955E-1,-5.900124907E-1
1.474872972E0,6.825500131E-1,-4.092000127E-1,-5.601750016E-1
1.477406812E0,6.452875137E-1,-2.932874858E-1,-4.548499882E-1
1.479940353E0,6.069250107E-1,-1.751749963E-1,-3.260124922E-1
1.482473968E0,5.878124833E-1,-4.427500069E-2,-2.195875049E-1
1.485007735E0,5.824499726E-1,1.027124971E-1,-1.451999992E-1
1.487541362E0,5.920749903E-1,2.260500044E-1,-1.079374999E-1
1.490075129E0,5.983999968E-1,3.282124996E-1,-1.036750004E-1
1.492608746E0,6.069250107E-1,4.112625122E-1,-1.238875017E-1
1.495142514E0,6.122875214E-1,4.676375091E-1,-1.685750037E-1
1.497676097E0,6.143500209E-1,5.017374754E-1,-2.238499969E-1
1.500209636E0,6.080250144E-1,5.080624819E-1,-2.887499928E-1
1.502743403E0,6.006000042E-1,4.985750020E-1,-3.601124883E-1
1.505277249E0,5.856124759E-1,4.826250076E-1,-4.292750061E-1
1.507810775E0,5.665000081E-1,4.624125063E-1,-4.878500104E-1
1.510344391E0,5.420249701E-1,4.388999939E-1,-5.378999710E-1
1.512878158E0,5.026999712E-1,4.251500070E-1,-5.709000230E-1
1.515411775E0,4.600749910E-1,4.101625085E-1,-5.900124907E-1
1.517945533E0,4.100250006E-1,3.931125104E-1,-5.953750014E-1
1.520479150E0,3.536500037E-1,3.793624938E-1,-5.911124945E-1
1.523012917E0,3.046999872E-1,3.634124994E-1,-5.750250220E-1
1.525546458E0,2.568500042E-1,3.484250009E-1,-5.548124909E-1
1.528080095E0,2.164250016E-1,3.409999907E-1,-5.314375162E-1
1.530613864E0,1.834249943E-1,3.207874894E-1,-5.037999749E-1
1.533147482E0,1.578499973E-1,3.005749881E-1,-4.761624932E-1
1.535681249E0,1.450625062E-1,2.803624868E-1,-4.441249967E-1
1.538214900E0,1.387374997E-1,2.601499856E-1,-4.090625048E-1
1.540748668E0,1.396999955E-1,2.367749959E-1,-3.707000017E-1
1.543282285E0,1.450625062E-1,2.080374956E-1,-3.282124996E-1
1.545816052E0,1.504250020E-1,1.718750000E-1,-2.781625092E-1
1.548349675E0,1.578499973E-1,1.238875017E-1,-2.238499969E-1
1.550883213E0,1.599124968E-1,7.603749633E-2,-1.621125042E-1
1.553416980E0,1.621125042E-1,3.244999796E-2,-9.295000136E-2
1.555950598E0,1.610125005E-1,-7.012499962E-3,-2.172499895E-2
1.558484389E0,1.535875052E-1,-4.001250118E-2,5.059999973E-2
1.561018006E0,1.376374960E-1,-7.507500052E-2,1.199000031E-1
1.563551774E0,1.205874979E-1,-1.069749966E-1,1.794375032E-1
1.566085391E0,1.067000031E-1,-1.357125044E-1,2.294874936E-1
1.568619153E0,8.758749813E-2,-1.687124968E-1,2.624875009E-1
1.571152771E0,7.163749635E-2,-1.963499933E-1,2.815999985E-1
1.573686538E0,5.775000155E-2,-2.123000026E-1,2.827000022E-1
1.576220155E0,4.399999976E-2,-2.219250053E-1,2.656500041E-1
1.578753675E0,3.011249937E-2,-2.367749959E-1,2.465374917E-1
1.581287442E0,1.842499897E-2,-2.486000061E-1,2.263250053E-1
1.583821059E0,1.209999993E-2,-2.517625093E-1,2.028124928E-1
1.586354827E0,5.637499969E-3,-2.538250089E-1,1.836999953E-1
1.588888458E0,8.799999952E-3,-2.612499893E-1,1.751749963E-1
1.591422225E0,1.842499897E-2,-2.538250089E-1,1.731124967E-1
1.593955843E0,3.121249937E-2,-2.367749959E-1,1.731124967E-1
1.596489610E0,5.032499880E-2,-2.155999988E-1,1.900250018E-1
1.599023232E0,6.943749636E-2,-1.846625060E-1,2.167000026E-1
1.601556999E0,9.501250088E-2,-1.538625062E-1,2.486000061E-1
1.604090540E0,1.183874980E-1,-1.410750002E-1,2.879250050E-1
1.606624153E0,1.376374960E-1,-1.368124932E-1,3.305499852E-1
1.609157899E0,1.556500047E-1,-1.357125044E-1,3.752374947E-1
1.611691516E0,1.748999953E-1,-1.399749964E-1,4.167625010E-1
1.614225283E0,1.897500008E-1,-1.325500011E-1,4.444000125E-1
1.616758901E0,2.003374994E-1,-1.219625026E-1,4.625499845E-1
1.619292673E0,2.014375031E-1,-1.208624989E-1,4.688749909E-1
1.621826290E0,1.982749999E-1,-1.176999956E-1,4.646124840E-1
1.624360057E0,1.876875013E-1,-1.049124971E-1,4.560874999E-1
1.626893675E0,1.663749963E-1,-7.191249728E-2,4.401375055E-1
1.629427213E0,1.387374997E-1,-3.671250120E-2,4.082374871E-1
1.631960981E0,1.131625026E-1,-3.671250120E-2,3.667125106E-1
1.634494598E0,8.978749812E-2,-1.368124932E-1,3.071750104E-1
1.637028365E0,7.590000331E-2,-3.485625088E-1,2.294874936E-1
1.639561997E0,8.978749812E-2,-5.241500139E-1,1.347499937E-1
1.642095764E0,9.817499667E-2,-4.826250076E-1,3.575000167E-2
1.644629381E0,6.943749636E-2,-2.475000024E-1,-4.729999974E-2
1.647163148E0,-1.567500085E-2,5.499999970E-4,-9.515000135E-2
1.649696752E0,-1.306249946E-1,1.526249945E-1,-1.270499974E-1
1.652230519E0,-2.370499969E-1,2.293500006E-1,-1.483625025E-1
1.654764060E0,-3.156999946E-1,2.835249901E-1,-1.643124968E-1
1.657297673E0,-3.529624939E-1,3.229874969E-1,-1.782000065E-1
1.659831471E0,-3.392125070E-1,3.463625014E-1,-1.876875013E-1
1.662365089E0,-2.891624868E-1,3.761999905E-1,-1.876875013E-1
1.664898856E0,-2.125750035E-1,4.027374983E-1,-1.717374921E-1
1.667432473E0,-1.306249946E-1,4.186874926E-1,-1.494625062E-1
1.669966259E0,-4.537500069E-2,4.283125103E-1,-1.185249984E-1
1.672499877E0,3.437500075E-2,4.177249968E-1,-8.236250281E-2
1.675033644E0,1.226499975E-1,4.932124913E-1,-6.751249731E-2
1.677567261E0,2.535499930E-1,7.316374779E-1,-1.068374962E-1
1.680100795E0,3.430624902E-1,7.028999925E-1,-1.984124929E-1
1.682634562E0,3.462249935E-1,3.591499925E-1,-3.005749881E-1
1.685168180E0,3.057999909E-1,4.729999974E-2,-3.803249896E-1
1.687701947E0,2.642749846E-1,-7.974999957E-3,-4.122250080E-1
1.690235564E0,2.290749997E-1,1.505624950E-1,-4.059000015E-1
1.692769331E0,1.886499971E-1,3.506250083E-1,-3.569499850E-1
1.695302949E0,1.472624987E-1,5.230500102E-1,-2.781625092E-1
1.697836487E0,9.611249715E-2,6.719624996E-1,-1.919499934E-1
1.700370317E0,4.716249928E-2,8.093249798E-1,-1.047749966E-1
1.702904087E0,1.732499897E-2,9.220749736E-1,-1.746249944E-2
1.705437704E0,2.749999985E-4,9.986624718E-1,6.132499874E-2
1.707971242E0,1.099999994E-2,1.042387486E0,1.273249984E-1
1.710504991E0,4.826249927E-2,1.065762520E0,1.857624948E-1
1.713038608E0,1.014750004E-1,1.084874988E0,2.304500043E-1
1.715572375E0,1.567499936E-1,1.096562505E0,2.591874897E-1
1.718105993E0,2.110625058E-1,1.109349966E0,2.773374915E-1
1.720639716E0,2.514874935E-1,1.096562505E0,2.858625054E-1
1.723173333E0,2.855874896E-1,1.084874988E0,2.954874933E-1
1.725707101E0,3.067624867E-1,1.079650044E0,2.997500002E-1
1.728240718E0,3.121249974E-1,1.070024967E0,3.018124998E-1
1.730774504E0,3.067624867E-1,1.054075003E0,3.071750104E-1
1.733308045E0,2.919124961E-1,1.027400017E0,3.177624941E-1
1.735841658E0,2.770625055E-1,9.944000244E-1,3.231250048E-1
1.738375427E0,2.620750070E-1,9.593374729E-1,3.177624941E-1
1.740909021E0,2.483250052E-1,9.252374768E-1,3.049750030E-1
1.743442788E0,2.323749959E-1,8.784874678E-1,2.858625054E-1
1.745976405E0,2.173874974E-1,8.188124895E-1,2.613874972E-1
1.748510173E0,2.046000063E-1,7.752249837E-1,2.283875048E-1
1.751043785E0,1.854874939E-1,7.347999811E-1,1.911250055E-1
1.753577552E0,1.663749963E-1,6.954749823E-1,1.495999992E-1
1.756111170E0,1.430000067E-1,6.624749899E-1,1.113749966E-1
1.758644708E0,1.142624989E-1,6.315374970E-1,7.933750004E-2
1.761178466E0,8.016250283E-2,5.975750089E-1,6.022499874E-2
1.763712312E0,4.289999977E-2,5.517874956E-1,4.537500069E-2
1.766245853E0,1.209999993E-2,5.187875032E-1,4.537500069E-2
1.768779468E0,-1.237499993E-2,4.932124913E-1,5.389999971E-2
1.771313265E0,-3.258749843E-2,4.698374867E-1,6.764999777E-2
1.773846882E0,-4.537500069E-2,4.655750096E-1,8.359999955E-2
1.776380649E0,-5.293750018E-2,4.826250076E-1,9.212499857E-2
1.778914267E0,-5.499999970E-2,5.006374717E-1,8.786249906E-2
1.781448039E0,-5.719999969E-2,5.347374678E-1,6.984999776E-2
1.783981579E0,-6.132499874E-2,5.847874880E-1,4.221250117E-2
1.786515193E0,-6.984999776E-2,6.432250142E-1,2.089999989E-2
1.789048962E0,-8.057499677E-2,6.986374855E-1,2.406249940E-2
1.791582578E0,-9.432499856E-2,7.411249876E-1,5.389999971E-2
1.794116346E0,-1.050499976E-1,7.646374702E-1,1.049124971E-1
1.796649963E0,-1.061500013E-1,8.401250243E-1,1.634874940E-1
1.799183730E0,-5.926249921E-2,1.161599994E0,2.135374993E-1
1.801717324E0,4.716249928E-2,1.545774937E0,2.634499967E-1
1.804251091E0,8.758749813E-2,1.546737432E0,3.049750030E-1
1.806784708E0,4.496249929E-2,1.207249999E0,3.316499889E-1
1.809318247E0,-2.309999987E-2,8.646000028E-1,3.454000056E-1
1.811852024E0,-8.689999580E-2,7.368624806E-1,3.581874967E-1
1.814385641E0,-1.326874942E-1,7.103250027E-1,3.422375023E-1
1.816919409E0,-1.645874977E-1,6.699000001E-1,3.231250048E-1
1.819453026E0,-1.731124967E-1,6.326375008E-1,3.029125035E-1
1.821986812E0,-1.571625024E-1,6.070625186E-1,2.932874858E-1
1.824520430E0,-1.380500048E-1,5.560500026E-1,2.997500002E-1
1.827053968E0,-1.199000031E-1,4.932124913E-1,3.166624904E-1
1.829587812E0,-1.082125008E-1,4.453625083E-1,3.454000056E-1
1.832121567E0,-1.071124971E-1,4.336749911E-1,3.752374947E-1
1.834655185E0,-1.050499976E-1,4.431625009E-1,4.039750099E-1
1.837188723E0,-1.135749966E-1,4.602124989E-1,4.188250005E-1
1.839722490E0,-1.241625026E-1,4.718999863E-1,4.210250080E-1
1.842256098E0,-1.358499974E-1,4.793249965E-1,4.145624936E-1
1.844789865E0,-1.465750039E-1,4.750624895E-1,4.008125067E-1
1.847323483E0,-1.560624987E-1,4.581499994E-1,3.806000054E-1
1.849857250E0,-1.634874940E-1,4.463250041E-1,3.646500111E-1
1.852390877E0,-1.614249945E-1,4.422000051E-1,3.411374986E-1
1.854924644E0,-1.528999954E-1,4.496249855E-1,3.294500113E-1
1.857458262E0,-1.358499974E-1,4.633750021E-1,3.188624978E-1
1.859992029E0,-1.050499976E-1,4.900499880E-1,3.092375100E-1
1.862525583E0,-6.984999776E-2,5.293750167E-1,3.071750104E-1
1.865059197E0,-3.162499890E-2,5.677375197E-1,3.134999871E-1
1.867592966E0,2.474999987E-3,5.985375047E-1,3.177624941E-1
1.870126583E0,2.694999985E-2,6.166874766E-1,3.273875117E-1
1.872660380E0,4.083750024E-2,6.294749975E-1,3.422375023E-1
1.875193997E0,4.496249929E-2,6.443250179E-1,3.570874929E-1
1.877727764E0,3.973750025E-2,6.507874727E-1,3.667125106E-1
1.880261382E0,2.694999985E-2,6.454250216E-1,3.752374947E-1
1.882795192E0,1.209999993E-2,6.358000040E-1,3.837625086E-1
1.885328809E0,-2.887499984E-3,6.155874729E-1,3.880249858E-1
1.887862348E0,-1.993750036E-2,5.825874805E-1,3.826625049E-1
1.890396115E0,-3.052499890E-2,5.315750241E-1,3.774375021E-1
1.892929737E0,-4.221250117E-2,4.474250078E-1,3.709749877E-1
1.895463505E0,-5.499999970E-2,3.441624939E-1,3.646500111E-1
1.897997122E0,-6.888750196E-2,2.367749959E-1,3.561249971E-1
1.900530889E0,-7.631249726E-2,1.249874979E-1,3.486999869E-1
1.903064536E0,-8.373750001E-2,1.746249944E-2,3.273875117E-1
1.905598303E0,-8.579999954E-2,-7.287500054E-2,2.858625054E-1
1.908131920E0,-7.095000148E-2,-1.325500011E-1,2.400749922E-1
1.910665688E0,-6.462500244E-2,-2.538250089E-1,2.155999988E-1
1.913199295E0,-7.837499678E-2,-4.305124879E-1,1.890625060E-1
1.915732833E0,-8.263749629E-2,-5.400999784E-1,1.603250057E-1
1.918266601E0,-8.799999952E-2,-6.188874841E-1,1.304875016E-1
1.920800218E0,-8.799999952E-2,-6.891499758E-1,8.579999954E-2
1.923334023E0,-7.204999775E-2,-6.976749897E-1,3.148749843E-2
1.925867641E0,-4.441250116E-2,-6.826875210E-1,-1.429999992E-2
1.928401408E0,-2.516249940E-2,-7.093625069E-1,-4.936249927E-2
1.930934948E0,-1.787499990E-3,-6.912124753E-1,-6.104999781E-2
1.933468798E0,7.837500423E-3,-7.178875208E-1,-4.826249927E-2
1.936002415E0,-6.874999963E-4,-7.742624879E-1,-2.172499895E-2
1.938536182E0,-3.162499890E-2,-8.189499974E-1,1.553750038E-2
1.941069723E0,-6.984999776E-2,-8.519499898E-1,6.132499874E-2
1.943603361E0,-1.082125008E-1,-8.912749887E-1,1.080750003E-1
1.946137130E0,-1.497374922E-1,-9.657999873E-1,1.475374997E-1
1.948670748E0,-1.847999990E-1,-1.067962527E0,1.825999916E-1
1.951204515E0,-2.135374993E-1,-1.193500042E0,2.050125003E-1
1.953738161E0,-2.305874974E-1,-1.323437452E0,2.198625058E-1
1.956271929E0,-2.411749959E-1,-1.442512512E0,2.315499932E-1
1.958805546E0,-2.433750033E-1,-1.541512489E0,2.315499932E-1
1.961339084E0,-2.422749996E-1,-1.614937544E0,2.261874974E-1
1.963872944E0,-2.316875011E-1,-1.667187452E0,2.155999988E-1
1.966406484E0,-2.188999951E-1,-1.721362472E0,1.985500008E-1
1.968940251E0,-2.018499970E-1,-1.748037457E0,1.720124930E-1
1.971473869E0,-1.753125042E-1,-1.730987549E0,1.432749927E-1
1.974007717E0,-1.423124969E-1,-1.691662550E0,1.156374961E-1
1.976541257E0,-1.145374998E-1,-1.644775033E0,9.116250277E-2
1.979075025E0,-8.579999954E-2,-1.584137440E0,7.081250101E-2
1.981608642E0,-5.719999969E-2,-1.518137455E0,5.706249923E-2
1.984142161E0,-3.162499890E-2,-1.451037526E0,4.427500069E-2
1.986676006E0,-3.987499978E-3,-1.376649976E0,3.258749843E-2
1.989209775E0,2.268750034E-2,-1.291399956E0,2.296249941E-2
1.991743392E0,4.496249929E-2,-1.192537546E0,1.237499993E-2
1.994276931E0,6.421250105E-2,-1.097800016E0,-5.774999969E-3
1.996810679E0,8.648750186E-2,-1.021212459E0,-2.914999984E-2
1.999344296E0,9.721250087E-2,-9.487500191E-1,-5.362499878E-2
2.001878063E0,1.109625027E-1,-8.775249720E-1,-8.662500232E-2
2.004411681E0,1.120624989E-1,-8.252750039E-1,-1.174250022E-1
2.006945448E0,1.035374999E-1,-7.805874944E-1,-1.387374997E-1
2.009479066E0,9.611249715E-2,-7.508875132E-1,-1.579875052E-1
2.012012833E0,7.906249911E-2,-7.444249988E-1,-1.696749926E-1
2.014546373E0,5.252499878E-2,-7.753624916E-1,-1.791625023E-1
2.017080193E0,2.378750034E-2,-8.157874942E-1,-1.908500046E-1
2.019613734E0,1.374999993E-3,-8.604750037E-1,-2.089999914E-1
2.022147349E0,-1.237499993E-2,-9.168499708E-1,-2.366375029E-1
2.024681116E0,-4.949999973E-3,-9.774875045E-1,-2.644124925E-1
2.027214729E0,2.048750035E-2,-9.998999834E-1,-2.781625092E-1
2.029748496E0,3.973750025E-2,-9.860125184E-1,-2.888875008E-1
2.032282113E0,4.179999977E-2,-9.732249975E-1,-2.952125072E-1
2.034815881E0,3.437500075E-2,-9.754250050E-1,-2.909500003E-1
2.037349488E0,3.231250122E-2,-9.871125221E-1,-2.803624868E-1
2.039883255E0,4.083750024E-2,-9.722625017E-1,-2.653749883E-1
2.042416873E0,4.716249928E-2,-9.307374954E-1,-2.440624982E-1
2.044950640E0,5.458749831E-2,-8.699625134E-1,-2.111999989E-1
2.047484175E0,6.201250106E-2,-7.965375185E-1,-1.654125005E-1
2.050017789E0,7.273750007E-2,-7.199500203E-1,-1.099999994E-1
2.052551558E0,7.906249911E-2,-6.252124906E-1,-4.509999976E-2
2.055085175E0,8.016250283E-2,-5.230500102E-1,2.516249940E-2
2.057618939E0,7.053750008E-2,-4.177249968E-1,9.528750181E-2
2.060152556E0,5.348749831E-2,-3.177624941E-1,1.570249945E-1
2.062686323E0,3.437500075E-2,-2.155999988E-1,2.167000026E-1
2.065219941E0,9.899999946E-3,-1.038125008E-1,2.751374841E-1
2.067753693E0,-2.089999989E-2,1.003750041E-2,3.294500113E-1
2.070287310E0,-5.499999970E-2,1.357125044E-1,3.741374910E-1
2.072820849E0,-8.579999954E-2,2.558875084E-1,4.093374908E-1
2.075354616E0,-1.135749966E-1,3.654749990E-1,4.423374832E-1
2.077888243E0,-1.369500011E-1,4.570499957E-1,4.625499845E-1
2.080422011E0,-1.593624949E-1,5.230500102E-1,4.668124914E-1
2.082955628E0,-1.805374920E-1,5.762624741E-1,4.369750023E-1
2.085489395E0,-1.922249943E-1,5.825874805E-1,3.678124845E-1
2.088022979E0,-2.007499933E-1,5.453249812E-1,2.773374915E-1
2.090556746E0,-1.944250017E-1,4.985750020E-1,1.729750037E-1
2.093090363E0,-1.847999990E-1,4.505875111E-1,5.169999972E-2
2.095624131E0,-1.645874977E-1,3.942124844E-1,-7.067500055E-2
2.098157642E0,-1.273249984E-1,3.357749879E-1,-1.717374921E-1
2.100691255E0,-8.483749628E-2,2.825624943E-1,-2.653749883E-1
2.103225025E0,-4.221250117E-2,2.091374993E-1,-3.558500111E-1
2.105758642E0,4.537499975E-3,1.196250021E-1,-4.261125028E-1
2.108292384E0,4.716249928E-2,2.076249942E-2,-4.644750059E-1
2.110826002E0,9.075000137E-2,-5.596249923E-2,-4.335374832E-1
2.113359769E0,1.216875017E-1,-1.080750003E-1,-3.845874965E-1
2.115893386E0,1.333750039E-1,-1.505624950E-1,-3.526875079E-1
2.118427145E0,1.322750002E-1,-1.783374995E-1,-3.133625090E-1
2.120960762E0,1.216875017E-1,-1.803999990E-1,-2.462625057E-1
2.123494300E0,8.222500235E-2,-1.803999990E-1,-1.834249943E-1
2.126028068E0,4.399999976E-2,-2.048749924E-1,-1.440999955E-1
2.128561665E0,2.158750035E-2,-2.645500004E-1,-1.281500012E-1
2.131095432E0,2.901249938E-2,-2.975499928E-1,-8.456250280E-2
2.133629050E0,6.627500057E-2,-2.751374841E-1,-1.512499992E-3
2.136162817E0,1.057374999E-1,-1.878249943E-1,7.507500052E-2
2.138696420E0,1.535875052E-1,-9.212499857E-2,1.080750003E-1
2.141230188E0,1.993750036E-1,-4.949999973E-2,9.212499857E-2
2.143763805E0,2.429624945E-1,-4.097500071E-2,9.955000132E-2
2.146297572E0,2.568500042E-1,-4.317500070E-2,1.219625026E-1
2.148831093E0,2.461249977E-1,-4.097500071E-2,1.134374961E-1
2.151364706E0,2.281125039E-1,-4.743750021E-2,9.322500229E-2
2.153898475E0,1.801249981E-1,-7.713750005E-2,9.116250277E-2
2.156432093E0,1.237500012E-1,-8.249999583E-2,7.191249728E-2
2.158965870E0,7.479999959E-2,-6.228749827E-2,3.684999794E-2
2.161499487E0,1.209999993E-2,-1.058750004E-1,2.406249940E-2
2.164033254E0,-2.626249939E-2,-1.186624989E-1,3.038750030E-2
2.166566795E0,-5.719999969E-2,-5.169999972E-2,2.296249941E-2
2.169100663E0,-7.521250099E-2,-6.338749826E-2,1.127499994E-2
2.171634281E0,-1.082125008E-1,-1.134374961E-1,-1.952499896E-2
2.174168048E0,-9.858749807E-2,-8.992499858E-2,-1.099999994E-2
2.176701588E0,-7.521250099E-2,-1.443750039E-2,1.127499994E-2
2.179235212E0,-5.293750018E-2,1.512499992E-3,4.963750020E-2
2.181768981E0,-4.331250116E-2,-7.012499962E-3,7.617499679E-2
2.184302598E0,3.574999981E-3,5.156249925E-2,1.219625026E-1
2.186836365E0,5.142499879E-2,1.207249984E-1,1.262249947E-1
2.189369968E0,9.295000136E-2,1.420374960E-1,8.579999954E-2
2.191903735E0,1.344749928E-1,1.260875016E-1,6.875000149E-2
2.194437352E0,1.641750038E-1,1.377750039E-1,1.979999989E-2
2.196971120E0,2.121624947E-1,2.091374993E-1,6.874999963E-4
2.199504713E0,2.408999950E-1,2.623499930E-1,-3.451250121E-2
2.202038252E0,2.589125037E-1,2.580874860E-1,-1.494625062E-1
2.204572019E0,2.568500042E-1,2.208250016E-1,-2.590500116E-1
2.207105636E0,2.525874972E-1,1.548250020E-1,-2.622124851E-1
2.209639389E0,2.355374992E-1,1.676124930E-1,-2.388374954E-1
2.212173007E0,2.461249977E-1,2.547875047E-1,-1.973125041E-1
2.214706774E0,2.472250015E-1,3.229874969E-1,-1.782000065E-1
2.217240391E0,2.429624945E-1,3.526875079E-1,-2.153249979E-1
2.219774145E0,2.238499969E-1,3.506250083E-1,-2.399374992E-1
2.222307762E0,2.110625058E-1,3.155624866E-1,-1.706375033E-1
2.224841529E0,2.025374919E-1,3.612124920E-1,-7.067500055E-2
2.227375070E0,2.079000026E-1,4.644750059E-1,-3.135000169E-2
2.229908697E0,2.121624947E-1,5.230500102E-1,-6.847500056E-2
2.232442466E0,2.067999989E-1,5.113624930E-1,-1.355749965E-1
2.234976084E0,1.919499934E-1,4.718999863E-1,-2.079000026E-1
2.237509851E0,1.834249943E-1,4.570499957E-1,-2.419999987E-1
2.240043459E0,1.993750036E-1,4.772624969E-1,-1.504250020E-1
2.242577227E0,2.418625057E-1,6.039000154E-1,-2.914999984E-2
2.245110844E0,2.887499928E-1,7.453874946E-1,-1.319999993E-2
2.247644383E0,3.397625089E-1,8.221125007E-1,-1.739374995E-1
2.250178231E0,3.707000017E-1,7.783874869E-1,-4.016374946E-1
2.252712000E0,3.684999943E-1,6.369000077E-1,-6.410250068E-1
2.255245540E0,3.590124846E-1,5.006374717E-1,-8.443874717E-1
2.257779156E0,3.504875004E-1,4.049375057E-1,-9.719874859E-1
2.260312952E0,3.493874967E-1,3.431999981E-1,-1.004024982E0
2.262846569E0,3.504875004E-1,3.196874857E-1,-9.517750144E-1
2.265380337E0,3.599750102E-1,3.389374912E-1,-8.518124819E-1
2.267913954E0,3.718000054E-1,3.825249970E-1,-7.550125122E-1
2.270447746E0,3.855499923E-1,4.166249931E-1,-6.676999927E-1
2.272981364E0,3.951750100E-1,4.177249968E-1,-6.028000116E-1
2.275515131E0,4.047999978E-1,3.761999905E-1,-5.581125021E-1
2.278048671E0,4.089249969E-1,3.176249862E-1,-5.282750130E-1
2.280582294E0,4.079625010E-1,2.580874860E-1,-5.112249851E-1
2.283116063E0,4.005374908E-1,2.069374919E-1,-4.995374978E-1
2.285649680E0,3.951750100E-1,1.622499973E-1,-4.399999976E-1
2.288183448E0,3.940750062E-1,1.707749963E-1,-3.174875081E-1
2.290717080E0,3.707000017E-1,2.132624984E-1,-2.855874896E-1
2.293250847E0,3.345375061E-1,1.813624948E-1,-2.675749958E-1
2.295784388E0,2.739000022E-1,1.143999994E-1,-2.770625055E-1
2.298318001E0,2.025374919E-1,5.692499876E-2,-3.335750103E-1
2.300851846E0,1.365374923E-1,-2.749999985E-3,-3.910500109E-1
2.303385616E0,9.295000136E-2,-3.575000167E-2,-4.409624934E-1
2.305919156E0,7.906249911E-2,-2.818750031E-2,-4.856500030E-1
2.308452771E0,8.648750186E-2,-1.966249943E-2,-5.240125060E-1
2.310986564E0,1.088999957E-1,-2.818750031E-2,-5.538499951E-1
2.313520181E0,1.450625062E-1,-5.059999973E-2,-5.792874694E-1
2.316053948E0,1.843875051E-1,-6.971249729E-2,-5.931749940E-1
2.318587566E0,2.355374992E-1,-7.713750005E-2,-5.920749903E-1
2.321121352E0,2.887499928E-1,-7.713750005E-2,-5.112249851E-1
2.323654969E0,3.590124846E-1,-2.818750031E-2,-3.760625124E-1
2.326188736E0,3.877499998E-1,3.135000169E-2,-3.111625016E-1
2.328722354E0,3.707000017E-1,-5.499999970E-4,-2.568500042E-1
2.331256106E0,3.280749917E-1,-7.081250101E-2,-2.835249901E-1
2.333789647E0,2.908124924E-1,-1.399749964E-1,-3.675374985E-1
2.336323260E0,2.759625018E-1,-2.219250053E-1,-4.633750021E-1
2.338857029E0,2.887499928E-1,-2.985124886E-1,-5.590749979E-1
2.341390657E0,3.195500076E-1,-3.645125031E-1,-6.400625110E-1
2.343924424E0,3.504875004E-1,-4.347749949E-1,-6.762250066E-1
2.346458041E0,3.770250082E-1,-4.933499992E-1,-6.687999964E-1
2.348991808E0,4.025999904E-1,-5.113624930E-1,-6.102250218E-1
2.351525320E0,4.207499921E-1,-5.007749796E-1,-4.878500104E-1
2.354059164E0,4.164874852E-1,-4.731374979E-1,-3.910500109E-1
2.356592781E0,3.834874928E-1,-4.720374942E-1,-3.834874928E-1
2.359126320E0,3.334375024E-1,-5.306124687E-1,-4.175874889E-1
2.361660102E0,2.770625055E-1,-5.964750051E-1,-4.707999825E-1
2.364193720E0,2.344374955E-1,-6.348375082E-1,-5.165874958E-1
2.366727487E0,2.067999989E-1,-6.593124866E-1,-5.473874807E-1
2.369261104E0,1.834249943E-1,-6.624749899E-1,-5.644375086E-1
2.371794870E0,1.652749926E-1,-6.582124829E-1,-5.729625225E-1
2.374328488E0,1.535875052E-1,-6.433625221E-1,-5.709000230E-1
2.376862026E0,1.461624950E-1,-6.242499948E-1,-5.601750016E-1
2.379395870E0,1.354375035E-1,-6.177874804E-1,-5.548124909E-1
2.381929655E0,1.194875017E-1,-6.263124943E-1,-5.495874882E-1
2.384463195E0,1.067000031E-1,-6.507874727E-1,-5.271750093E-1
2.386996811E0,1.046374962E-1,-6.646749973E-1,-4.739624858E-1
2.389530578E0,1.003749967E-1,-6.582124829E-1,-4.281750023E-1
2.392064171E0,8.758749813E-2,-6.593124866E-1,-4.229499996E-1
2.394597938E0,7.590000331E-2,-6.923124790E-1,-4.431625009E-1
2.397131556E0,6.627500057E-2,-7.423624992E-1,-4.676375091E-1
2.399665323E0,7.273750007E-2,-7.881500125E-1,-4.846875072E-1
2.402198954E0,9.075000137E-2,-8.210124969E-1,-4.899125099E-1
2.404732722E0,1.131625026E-1,-8.434249759E-1,-4.867500067E-1
2.407266339E0,1.387374997E-1,-8.497499824E-1,-4.654375017E-1
2.409799878E0,1.621125042E-1,-8.413624763E-1,-4.399999976E-1
2.412333660E0,1.812250018E-1,-8.295375109E-1,-4.197874963E-1
2.414867277E0,2.227499932E-1,-7.668374777E-1,-3.462249935E-1
2.417401044E0,2.589125037E-1,-6.880499721E-1,-2.292124927E-1
2.419934662E0,2.568500042E-1,-6.646749973E-1,-2.100999951E-1
2.422468424E0,2.344374955E-1,-7.156875134E-1,-2.590500116E-1
2.425002041E0,2.036374956E-1,-7.955750227E-1,-3.185875118E-1
2.427535809E0,1.834249943E-1,-8.243125081E-1,-3.601124883E-1
2.430069329E0,1.812250018E-1,-7.742624879E-1,-3.590124846E-1
2.432603072E0,1.865874976E-1,-7.019374967E-1,-3.133625090E-1
2.435136785E0,1.535875052E-1,-6.646749973E-1,-3.143250048E-1
2.437727866E0,1.120624989E-1,-6.370375156E-1,-3.378374875E-1
2.440204098E0,5.775000155E-2,-6.252124906E-1,-3.697375059E-1
2.442737712E0,1.732499897E-2,-5.955125093E-1,-4.144249856E-1
2.445271481E0,1.526249945E-2,-4.954124987E-1,-3.675374985E-1
2.447805095E0,2.584999986E-2,-3.634124994E-1,-2.047374994E-1
2.450338865E0,-3.987499978E-3,-2.804999948E-1,-1.643124968E-1
2.452872403E0,-8.579999954E-2,-3.134999871E-1,-2.345750034E-1
2.455406249E0,-1.805374920E-1,-4.123624861E-1,-3.504875004E-1
2.457939887E0,-2.444749922E-1,-4.794625044E-1,-4.505875111E-1
2.460473654E0,-2.667500079E-1,-4.783625007E-1,-5.176874995E-1
2.463007194E0,-2.721124887E-1,-4.666749835E-1,-5.410624743E-1
2.465540808E0,-2.667500079E-1,-4.655750096E-1,-5.037999749E-1
2.468074586E0,-2.561624944E-1,-4.453625083E-1,-4.718999863E-1
2.470608203E0,-2.411749959E-1,-4.262500107E-1,-4.569124877E-1
2.473141971E0,-2.177999914E-1,-4.145624936E-1,-4.346374869E-1
2.475675588E0,-1.795749962E-1,-3.911874890E-1,-4.079625010E-1
2.478209355E0,-1.432749927E-1,-3.528249860E-1,-3.718000054E-1
2.480742896E0,-9.336250275E-2,-2.847625017E-1,-2.611125112E-1
2.483276509E0,-3.904999793E-2,-1.900250018E-1,-1.319999993E-2
2.485810355E0,-2.626249939E-2,-8.139999956E-2,6.984999776E-2
2.488343892E0,-7.204999775E-2,-6.544999778E-2,1.869999990E-2
2.490877659E0,-1.337874979E-1,-1.473999918E-1,-7.067500055E-2
2.493411276E0,-1.603250057E-1,-2.241249979E-1,-1.546874940E-1
2.495945044E0,-1.518000066E-1,-2.378749996E-1,-2.323749959E-1
2.498478661E0,-1.241625026E-1,-2.144999951E-1,-2.727999985E-1
2.501012428E0,-8.799999952E-2,-1.761374921E-1,-2.792625129E-1
2.503546046E0,-5.389999971E-2,-1.218250021E-1,-2.547875047E-1
2.506079584E0,-1.883750036E-2,-5.692499876E-2,-1.941500008E-1
2.508613432E0,1.306249946E-2,1.649999991E-2,-8.030000329E-2
2.511146973E0,1.636249945E-2,6.435000151E-2,9.212499484E-3
2.513680740E0,-1.031249948E-2,8.139999956E-2,7.507500052E-2
2.516214357E0,-4.647500068E-2,7.603749633E-2,9.432499856E-2
2.518748144E0,-6.888750196E-2,5.046249926E-2,6.242499873E-2
2.521281761E0,-6.778749824E-2,3.561250120E-2,1.038125008E-1
2.523815528E0,-2.736249939E-2,1.121999994E-1,2.144999951E-1
2.526349146E0,-3.478749841E-2,1.867250055E-1,1.379124969E-1
2.528882928E0,-8.167500049E-2,1.027124971E-1,4.949999973E-3
2.531416545E0,-1.156374961E-1,-3.148749843E-2,-1.227874979E-1
2.533950084E0,-9.652499855E-2,-8.896250278E-2,-2.069374919E-1
2.536483928E0,-5.499999970E-2,-6.875000149E-2,-2.451625019E-1
2.539017706E0,-2.089999989E-2,-4.317500070E-2,-2.696374953E-1
2.541551247E0,-6.874999963E-4,-4.839999974E-2,-2.824249864E-1
2.544084862E0,9.899999946E-3,-6.118749827E-2,-2.739000022E-1
2.546618629E0,2.158750035E-2,-7.287500054E-2,-2.558875084E-1
2.549152233E0,2.804999985E-2,-7.617499679E-2,-2.323749959E-1
2.551686000E0,2.804999985E-2,-9.955000132E-2,-2.217874974E-1
2.554219617E0,2.158750035E-2,-1.303499937E-1,-2.175250053E-1
2.556753384E0,1.416249946E-2,-1.718750000E-1,-2.015749961E-1
2.559286944E0,9.899999946E-3,-2.048749924E-1,-1.824624985E-1
2.561820788E0,6.737499963E-3,-2.261874974E-1,-1.537249982E-1
2.564354329E0,6.737499963E-3,-2.410375029E-1,-1.185249984E-1
2.566887944E0,5.637499969E-3,-2.634499967E-1,-8.236250281E-2
2.569421702E0,6.737499963E-3,-2.932874858E-1,-4.729999974E-2
2.571955320E0,7.837500423E-3,-3.294500113E-1,-1.746249944E-2
2.574489087E0,3.574999981E-3,-3.645125031E-1,1.127499994E-2
2.577022704E0,1.374999993E-3,-3.858250082E-1,4.001250118E-2
2.579556470E0,9.899999946E-3,-4.092000127E-1,6.558749825E-2
2.582090088E0,2.901249938E-2,-4.444000125E-1,7.191249728E-2
2.584623626E0,1.636249945E-2,-4.709374905E-1,6.338749826E-2
2.587157470E0,-5.183750018E-2,-4.635125101E-1,6.764999777E-2
2.589691236E0,-1.443749964E-1,-4.219875038E-1,1.080750003E-1
2.592224776E0,-2.103749961E-1,-3.878875077E-1,1.560624987E-1
2.594758392E0,-2.327875048E-1,-3.719374835E-1,1.677500010E-1
2.597292159E0,-2.167000026E-1,-3.730374873E-1,1.453374922E-1
2.599825771E0,-1.603250057E-1,-4.060375094E-1,8.786249906E-2
2.602359538E0,-7.204999775E-2,-4.646124840E-1,9.212499484E-3
2.604893156E0,2.268750034E-2,-5.050374866E-1,-8.346249908E-2
2.607426923E0,1.109625027E-1,-5.124624968E-1,-1.526249945E-1
2.609960453E0,1.684374958E-1,-5.517874956E-1,-1.993750036E-1
2.612494298E0,1.951124966E-1,-6.146249771E-1,-2.238499969E-1
2.615027838E0,2.056999952E-1,-6.774625182E-1,-2.228875011E-1
2.617561453E0,2.025374919E-1,-7.231125236E-1,-2.079000026E-1
2.620095192E0,1.962125003E-1,-7.401624918E-1,-1.717374921E-1
2.622628809E0,1.865874976E-1,-7.253124714E-1,-1.121999994E-1
2.625162576E0,1.727000028E-1,-6.741625071E-1,-4.729999974E-2
2.627696194E0,1.493249983E-1,-6.007375121E-1,1.127499994E-2
2.630229961E0,1.237500012E-1,-5.220875144E-1,5.486249924E-2
2.632763578E0,1.014750004E-1,-4.336749911E-1,8.263749629E-2
2.635297117E0,9.295000136E-2,-3.337124884E-1,1.071124971E-1
2.637830884E0,1.014750004E-1,-2.452999949E-1,1.262249947E-1
2.640364735E0,1.216875017E-1,-1.516624987E-1,1.495999992E-1
2.642898353E0,1.493249983E-1,-5.802499875E-2,1.815000027E-1
2.645431891E0,1.706375033E-1,3.671250120E-2,2.209624946E-1
2.647965658E0,1.791625023E-1,1.357125044E-1,2.656500041E-1
2.650499276E0,1.801249981E-1,2.367749959E-1,3.092375100E-1
2.653033043E0,1.717374921E-1,3.261500001E-1,3.550249934E-1
2.655566660E0,1.589500010E-1,4.016374946E-1,4.019125104E-1
2.658100428E0,1.589500010E-1,4.687374830E-1,4.433000088E-1
2.660634064E0,1.727000028E-1,5.176874995E-1,4.753375053E-1
2.663167602E0,1.919499934E-1,5.453249812E-1,5.018749833E-1
2.665701447E0,2.153249979E-1,5.549499989E-1,5.200250149E-1
2.668234987E0,2.408999950E-1,5.549499989E-1,5.274500251E-1
2.670768754E0,2.589125037E-1,5.581125021E-1,5.337749720E-1
2.673302372E0,2.663374841E-1,5.677375197E-1,5.317124724E-1
2.675836139E0,2.620750070E-1,5.900124907E-1,5.252500176E-1
2.678369756E0,2.408999950E-1,6.135249734E-1,5.146625042E-1
2.680903524E0,2.079000026E-1,6.347000003E-1,5.007749796E-1
2.683437141E0,1.674750000E-1,6.496874690E-1,4.816625118E-1
2.685970908E0,1.205874979E-1,6.634374857E-1,4.603500068E-1
2.688504526E0,5.458749831E-2,6.954749823E-1,4.423374832E-1
2.691038303E0,-2.846249938E-2,7.486875057E-1,4.603500068E-1
2.693571843E0,-9.432499856E-2,8.050624728E-1,4.922499955E-1
2.696105687E0,-1.423124969E-1,8.986999989E-1,4.614500105E-1
2.698639228E0,-1.625249982E-1,9.539750218E-1,3.731749952E-1
2.701172838E0,-1.528999954E-1,9.305999875E-1,2.773374915E-1
2.703706606E0,-1.273249984E-1,8.837124705E-1,2.050125003E-1
2.706240223E0,-9.858749807E-2,8.657000065E-1,1.549624950E-1
2.708773990E0,-7.741250098E-2,8.529124856E-1,1.145374998E-1
2.711307589E0,-5.073750019E-2,8.230749965E-1,7.933750004E-2
2.713841356E0,-2.626249939E-2,7.731624842E-1,4.427500069E-2
2.716374896E0,5.637499969E-3,7.049624920E-1,9.212499484E-3
2.718908740E0,3.863750026E-2,6.326375008E-1,-1.746249944E-2
2.721442362E0,7.053750008E-2,5.612750053E-1,-3.024999984E-2
2.723975900E0,1.035374999E-1,5.017374754E-1,-1.746249944E-2
2.726509668E0,1.194875017E-1,4.325749874E-1,5.912499968E-3
2.729043285E0,1.163249984E-1,3.537875116E-1,2.406249940E-2
2.731577052E0,1.035374999E-1,2.857249975E-1,4.743750021E-2
2.734110670E0,8.332499862E-2,2.175250053E-1,6.558749825E-2
2.736644437E0,5.568749830E-2,1.388749927E-1,7.191249728E-2
2.739178054E0,2.378750034E-2,6.861250103E-2,8.786249906E-2
2.741711589E0,-6.049999967E-3,1.539999992E-2,1.410750002E-1
2.744245433E0,-3.272499889E-2,1.746249944E-2,3.007124960E-1
2.746778973E0,-6.242499873E-2,1.101374999E-1,4.486624897E-1
2.749312817E0,-1.135749966E-1,1.431374997E-1,5.923500061E-1
2.751846367E0,-1.667875051E-1,1.377750039E-1,7.360374928E-1
2.754380134E0,-2.667500079E-1,8.882500231E-2,7.115625143E-1
2.756913752E0,-3.668499887E-1,-1.464374959E-1,6.008750200E-1
2.759447519E0,-3.966875076E-1,-3.741374910E-1,4.879874885E-1
2.761981147E0,-3.561249971E-1,-4.538874924E-1,4.039750099E-1
2.764514914E0,-2.860000134E-1,-4.507249892E-1,3.539249897E-1
2.767048455E0,-2.316875011E-1,-4.305124879E-1,3.390749991E-1
2.769582068E0,-2.029500008E-1,-4.060375094E-1,3.603875041E-1
2.772115895E0,-1.975875050E-1,-4.123624861E-1,3.911874890E-1
2.774649665E0,-2.125750035E-1,-4.624125063E-1,4.061749876E-1
2.777183205E0,-2.305874974E-1,-5.443624854E-1,4.061749876E-1
2.779716820E0,-2.348500043E-1,-6.157249808E-1,3.986124992E-1
2.782250583E0,-2.263250053E-1,-6.763625145E-1,3.900874853E-1
2.784784200E0,-2.146375030E-1,-7.316374779E-1,3.656125069E-1
2.787317967E0,-2.146375030E-1,-7.668374777E-1,3.475999832E-1
2.789851585E0,-1.912624985E-1,-7.551500201E-1,3.368749917E-1
2.792385357E0,-1.423124969E-1,-6.986374855E-1,2.645500004E-1
2.794918974E0,-8.167500049E-2,-7.050999999E-1,1.731124967E-1
2.797452513E0,-2.419999987E-2,-7.284749746E-1,9.006249905E-2
2.799986357E0,3.657500073E-2,-6.689375043E-1,6.448750198E-2
2.802519892E0,7.163749635E-2,-5.955125093E-1,1.649999991E-3
2.805053660E0,5.995000154E-2,-6.177874804E-1,-1.344749928E-1
2.807587277E0,4.922499880E-2,-7.114250064E-1,-2.505249977E-1
2.810121044E0,6.201250106E-2,-7.731624842E-1,-3.388000131E-1
2.812654671E0,8.016250283E-2,-7.998374701E-1,-4.047999978E-1
2.815188438E0,8.552499861E-2,-8.221125007E-1,-4.420624971E-1
2.817722055E0,7.796250284E-2,-8.295375109E-1,-4.377999902E-1
2.820255823E0,4.289999977E-2,-8.083624840E-1,-3.217499852E-1
2.822789411E0,-2.626249939E-2,-7.859500051E-1,-1.227874979E-1
2.825323178E0,-9.542500228E-2,-7.699999809E-1,-1.632124931E-1
2.827856719E0,-1.273249984E-1,-8.690000176E-1,-2.238499969E-1
2.830390332E0,-1.050499976E-1,-9.700624943E-1,-2.601499856E-1
2.832924097E0,-6.132499874E-2,-1.015849948E0,-3.580499887E-1
2.835457715E0,-8.249999955E-3,-1.054075003E0,-4.569124877E-1
2.837991482E0,5.678749830E-2,-1.063699961E0,-4.984374940E-1
2.840525099E0,1.152250022E-1,-1.024374962E0,-4.899125099E-1
2.843058881E0,1.589500010E-1,-9.424250126E-1,-4.079625010E-1
2.845592421E0,1.674750000E-1,-8.168874979E-1,-1.865874976E-1
2.848126265E0,1.333750039E-1,-6.166874766E-1,2.144999951E-1
2.850659806E0,4.606249928E-2,-4.433000088E-1,3.561249971E-1
2.853193636E0,-6.984999776E-2,-4.613125026E-1,4.241875112E-1
2.855727176E0,-1.443749964E-1,-5.720000267E-1,4.998124838E-1
2.858260792E0,-1.571625024E-1,-5.688375235E-1,4.699749947E-1
2.860794559E0,-1.306249946E-1,-5.773624778E-1,3.326124847E-1
2.863328171E0,-8.167500049E-2,-6.177874804E-1,2.486000061E-1
2.865861939E0,-1.883750036E-2,-5.816249847E-1,2.858625054E-1
2.868395556E0,4.179999977E-2,-4.208875000E-1,2.804999948E-1
2.870929094E0,7.590000331E-2,-2.942500114E-1,2.315499932E-1
2.873462895E0,8.016250283E-2,-3.081375062E-1,1.634874940E-1
2.875996741E0,8.016250283E-2,-3.698749840E-1,1.156374961E-1
2.878530358E0,9.295000136E-2,-3.624500036E-1,1.028499976E-1
2.881063897E0,1.057374999E-1,-2.910875082E-1,1.156374961E-1
2.883597664E0,1.163249984E-1,-2.113374919E-1,1.262249947E-1
2.886131281E0,1.248499975E-1,-1.388749927E-1,1.304875016E-1
2.888665049E0,1.291124970E-1,-8.359999955E-2,1.240250021E-1
2.891198666E0,1.280124933E-1,-4.207500070E-2,1.017500013E-1
2.893732448E0,1.344749928E-1,-9.074999951E-3,7.617499679E-2
2.896265989E0,1.430000067E-1,3.024999984E-2,4.963750020E-2
2.898799602E0,1.535875052E-1,8.030000329E-2,2.942499891E-2
2.901333371E0,1.610125005E-1,1.388749927E-1,1.663750038E-2
2.903867212E0,1.674750000E-1,1.984124929E-1,1.663750038E-2
2.906400753E0,1.727000028E-1,2.612499893E-1,2.406249940E-2
2.908934368E0,1.748999953E-1,3.133625090E-1,4.001250118E-2
2.911468136E0,1.791625023E-1,3.602499962E-1,5.816249922E-2
2.914001738E0,1.801249981E-1,3.984749913E-1,7.933750004E-2
2.916535505E0,1.780624986E-1,4.229499996E-1,1.080750003E-1
2.919069123E0,1.780624986E-1,4.314749837E-1,1.315875053E-1
2.921602890E0,1.715999991E-1,4.294124842E-1,1.538625062E-1
2.924136497E0,1.632124931E-1,4.112625122E-1,1.815000027E-1
2.926670036E0,1.471250057E-1,3.995749950E-1,2.272875011E-1
2.929203880E0,1.344749928E-1,3.973749876E-1,2.784374952E-1
2.931737420E0,1.142624989E-1,3.771624863E-1,3.018124998E-1
2.934271196E0,9.295000136E-2,3.400374949E-1,3.177624941E-1
2.936804814E0,7.906249911E-2,3.304125071E-1,3.561249971E-1
2.939338581E0,6.847500056E-2,3.506250083E-1,4.124999940E-1
2.941872198E0,6.531249732E-2,3.761999905E-1,4.412375093E-1
2.944405981E0,5.142499879E-2,3.634124994E-1,4.444000125E-1
2.946939598E0,3.753750026E-2,3.335750103E-1,4.625499845E-1
2.949473137E0,3.327500075E-2,3.409999907E-1,4.944500029E-1
2.952006904E0,2.584999986E-2,3.645125031E-1,5.242875218E-1
2.954540516E0,1.416249946E-2,3.750999868E-1,5.487625003E-1
2.957074283E0,-6.874999963E-4,3.889875114E-1,5.795624852E-1
2.959607901E0,-1.567500085E-2,4.144249856E-1,6.040375233E-1
2.962141668E0,-2.626249939E-2,4.431625009E-1,6.242499948E-1
2.964675290E0,-3.162499890E-2,4.761624932E-1,6.370375156E-1
2.967209058E0,-3.368749842E-2,5.230500102E-1,6.518874764E-1
2.969742675E0,-3.368749842E-2,5.772249699E-1,6.678375006E-1
2.972276442E0,-3.478749841E-2,6.454250216E-1,6.891499758E-1
2.974809988E0,-3.904999793E-2,7.273749709E-1,7.126625180E-1
2.977343832E0,-4.867500067E-2,7.965375185E-1,7.243499756E-1
2.979877372E0,-6.242499873E-2,8.432874680E-1,7.210500240E-1
2.982411217E0,-7.095000148E-2,8.859124780E-1,7.062000036E-1
2.984944757E0,-7.521250099E-2,9.252374768E-1,6.806250215E-1
2.987478372E0,-7.521250099E-2,9.572749734E-1,6.433625221E-1
2.990012140E0,-7.411249727E-2,9.860125184E-1,6.008750200E-1
2.992545757E0,-6.668750197E-2,1.009387493E0,5.550875068E-1
2.995079495E0,-5.719999969E-2,1.028499961E0,5.092999935E-1
2.997613113E0,-4.647500068E-2,1.044450045E0,4.668124914E-1
3.000146880E0,-3.795000166E-2,1.054075003E0,4.252874851E-1
3.002680420E0,-2.942499891E-2,1.060400009E0,3.891249895E-1
3.005214265E0,-2.309999987E-2,1.062600017E0,3.539249897E-1
3.007747882E0,-1.883750036E-2,1.060400009E0,3.294500113E-1
3.010281420E0,-1.993750036E-2,1.047612548E0,3.081375062E-1
3.012815188E0,-3.272499889E-2,1.031662464E0,2.784374952E-1
3.015348800E0,-4.441250116E-2,1.012549996E0,2.496999949E-1
3.017882567E0,-5.499999970E-2,9.860125184E-1,2.177999914E-1
3.020416185E0,-6.352499872E-2,9.519125223E-1,1.857624948E-1
3.022949952E0,-6.668750197E-2,9.124500155E-1,1.560624987E-1
3.025483554E0,-6.888750196E-2,8.805499673E-1,1.293874979E-1
3.028017093E0,-6.036249921E-2,8.540124893E-1,1.091749966E-1
3.030550860E0,-5.293750018E-2,8.327000141E-1,1.006499976E-1
3.033084477E0,-5.293750018E-2,8.135874867E-1,9.116250277E-2
3.035618294E0,-4.963750020E-2,7.954375148E-1,8.579999954E-2
3.038151834E0,-4.647500068E-2,7.752249837E-1,8.359999955E-2
3.040685601E0,-4.331250116E-2,7.539125085E-1,8.359999955E-2
3.043219219E0,-4.221250117E-2,7.316374779E-1,8.263749629E-2
3.045753000E0,-3.795000166E-2,7.103250027E-1,8.043749630E-2
3.048286617E0,-3.272499889E-2,6.912124753E-1,7.727500051E-2
3.050820385E0,-2.419999987E-2,6.667374969E-1,7.617499679E-2
3.053354002E0,-1.663750038E-2,6.380000114E-1,7.301250100E-2
3.055887511E0,-7.149999961E-3,6.081625223E-1,7.411249727E-2
3.058421279E0,4.537499975E-3,5.688375235E-1,6.984999776E-2
3.060955125E0,1.416249946E-2,5.293750167E-1,6.668750197E-2
3.063488742E0,2.378750034E-2,4.826250076E-1,6.558749825E-2
3.066022281E0,3.121249937E-2,4.261125028E-1,6.764999777E-2
3.068556043E0,3.437500075E-2,3.729000092E-1,7.081250101E-2
3.071089660E0,3.437500075E-2,3.261500001E-1,6.984999776E-2
3.073623428E0,3.327500075E-2,2.803624868E-1,7.727500051E-2
3.076157045E0,2.158750035E-2,2.388374954E-1,9.858749807E-2
3.078690812E0,2.474999987E-3,2.165624946E-1,1.336500049E-1
3.081224430E0,-2.309999987E-2,2.208250016E-1,1.922249943E-1
3.083757968E0,-5.816249922E-2,2.271499932E-1,2.411749959E-1
3.086291735E0,-8.910000324E-2,2.154625058E-1,2.752749920E-1
3.088825592E0,-1.145374998E-1,1.984124929E-1,3.359124959E-1
3.091359133E0,-1.230624989E-1,2.048749924E-1,3.774375021E-1
3.093892748E0,-1.145374998E-1,2.899875045E-1,4.838624895E-1
3.096426515E0,-1.315875053E-1,3.261500001E-1,4.635125101E-1
3.098960128E0,-1.486375034E-1,2.197249979E-1,3.709749877E-1
3.101493895E0,-1.528999954E-1,1.431374997E-1,4.241875112E-1
3.104027512E0,-1.380500048E-1,1.909874976E-1,4.785000086E-1
3.106561280E0,-1.306249946E-1,2.750000060E-1,5.061374903E-1
3.109094820E0,-1.315875053E-1,2.601499856E-1,4.518249929E-1
3.111628664E0,-1.263625026E-1,2.931500077E-1,5.977125168E-1
3.114162205E0,-1.358499974E-1,3.836250007E-1,5.774999857E-1
3.116696049E0,-1.539999992E-1,3.389374912E-1,4.816625118E-1
3.119229575E0,-1.571625024E-1,2.410375029E-1,4.380750060E-1
3.121763191E0,-1.571625024E-1,1.739374995E-1,2.964499891E-1
3.124296958E0,-1.454750001E-1,7.177499682E-2,1.634874940E-1
3.126830575E0,-1.295250058E-1,-5.692499876E-2,7.012499962E-3
3.129364333E0,-9.336250275E-2,-1.379124969E-1,-1.376374960E-1
3.131897950E0,-4.111250117E-2,-2.241249979E-1,-3.048374951E-1
3.134431717E0,1.732499897E-2,-3.517250121E-1,-5.293750167E-1
3.136965335E0,7.163749635E-2,-5.124624968E-1,-7.092249990E-1
3.139499097E0,1.014750004E-1,-6.220499873E-1,-7.687624693E-1
3.142032714E0,9.927500039E-2,-6.444625258E-1,-7.229750156E-1
3.144566253E0,6.531249732E-2,-6.624749899E-1,-6.315374970E-1
3.147100020E0,2.804999985E-2,-7.221499681E-1,-6.230124831E-1
3.149633651E0,5.637499969E-3,-8.274750113E-1,-6.495500207E-1
3.152167419E0,1.099999994E-2,-9.327999949E-1,-6.602749825E-1
3.154701036E0,4.179999977E-2,-9.902749658E-1,-6.506500244E-1
3.157234803E0,7.796250284E-2,-1.015849948E0,-6.198499799E-1
3.159768431E0,1.088999957E-1,-1.023275018E0,-5.814874768E-1
3.162302198E0,1.226499975E-1,-1.022174954E0,-5.251125097E-1
3.164835815E0,1.354375035E-1,-1.021212459E0,-4.399999976E-1
3.167369354E0,1.396999955E-1,-1.013649940E0,-3.302749991E-1
3.169903174E0,1.269125044E-1,-9.871125221E-1,-2.079000026E-1
3.172436714E0,1.099999994E-1,-9.466875196E-1,-7.919999957E-2
3.174970482E0,8.332499862E-2,-9.040625095E-1,5.816249922E-2
3.177504099E0,5.458749831E-2,-8.380625248E-1,1.985500008E-1
3.180037861E0,3.011249937E-2,-7.529500127E-1,3.454000056E-1
3.182571479E0,1.099999994E-2,-6.380000114E-1,4.879874885E-1
3.185105246E0,2.749999985E-4,-5.050374866E-1,6.274124980E-1
3.187638863E0,-1.457499992E-2,-3.548874855E-1,7.742624879E-1
3.190172421E0,-2.942499891E-2,-1.931875050E-1,9.158874750E-1
3.192706265E0,-5.926249921E-2,-6.764999777E-2,1.038262486E0
3.195240034E0,-7.741250098E-2,5.156249925E-2,1.145787477E0
3.197773652E0,-8.579999954E-2,2.388374954E-1,1.265962481E0
3.200307214E0,-9.968750179E-2,4.155249894E-1,1.361799955E0
3.202840981E0,-1.199000031E-1,5.549499989E-1,1.424499989E0
3.205374599E0,-1.315875053E-1,6.676999927E-1,1.462862492E0
3.207908366E0,-1.412124932E-1,7.561125159E-1,1.469187498E0
3.210441964E0,-1.443749964E-1,8.316000104E-1,1.450075030E0
3.212975732E0,-1.432749927E-1,8.879749775E-1,1.413912535E0
3.215509349E0,-1.358499974E-1,9.231749773E-1,1.354375005E0
3.218042887E0,-1.252624989E-1,9.487500191E-1,1.280949950E0
3.220576771E0,-1.145374998E-1,9.656624794E-1,1.196799994E0
3.223110540E0,-1.028499976E-1,9.817500114E-1,1.115949988E0
3.225644157E0,-7.411249727E-2,1.007187486E0,1.019150019E0
3.228177696E0,-5.719999969E-2,1.034962535E0,9.127249718E-1
3.230711477E0,-6.558749825E-2,1.032762527E0,8.072624803E-1
3.233245094E0,-8.799999952E-2,1.014612436E0,7.062000036E-1
3.235778862E0,-1.178374961E-1,1.011450052E0,6.157249808E-1
3.238312479E0,-1.518000066E-1,1.029600024E0,5.348749757E-1
3.240846227E0,-1.838375032E-1,1.073187470E0,4.540250003E-1
3.243379768E0,-2.018499970E-1,1.123237491E0,3.837625086E-1
3.245913612E0,-2.083124965E-1,1.163662553E0,3.177624941E-1
3.248447152E0,-2.061125040E-1,1.209450006E0,2.582249939E-1
3.250980980E0,-2.125750035E-1,1.249874949E0,1.911250055E-1
3.253514521E0,-2.220624983E-1,1.273249984E0,1.091749966E-1
3.256048136E0,-2.337500006E-1,1.275449991E0,2.516249940E-2
3.258581903E0,-2.402125001E-1,1.258399963E0,-7.067500055E-2
3.261115531E0,-2.305874974E-1,1.240249991E0,-1.611499935E-1
3.263649298E0,-2.285249978E-1,1.213712454E0,-2.579500079E-1
3.266182916E0,-2.348500043E-1,1.147712469E0,-3.632749915E-1
3.268716683E0,-2.422749996E-1,1.062600017E0,-4.622749984E-1
3.271250223E0,-2.433750033E-1,9.710249901E-1,-5.559124947E-1
3.273784067E0,-2.518999875E-1,8.614374995E-1,-6.506500244E-1
3.276317685E0,-2.572624981E-1,7.316374779E-1,-7.314999700E-1
3.278851452E0,-2.667500079E-1,6.059625149E-1,-7.964000106E-1
3.281385020E0,-2.860000134E-1,4.815250039E-1,-8.571749926E-1
3.283918634E0,-3.040125072E-1,3.548874855E-1,-9.050250053E-1
3.286452403E0,-3.114374876E-1,2.336124927E-1,-9.400874972E-1
3.288986020E0,-3.125374913E-1,1.175625026E-1,-9.667624831E-1
3.291519779E0,-3.125374913E-1,1.512499992E-3,-9.816125035E-1
3.294053396E0,-3.071750104E-1,-1.134374961E-1,-9.901375175E-1
3.296587163E0,-2.902624905E-1,-2.315499932E-1,-9.954999685E-1
3.299120781E0,-2.752749920E-1,-3.539249897E-1,-9.986624718E-1
3.301654338E0,-2.593249977E-1,-4.592500031E-1,-1.000725031E0
3.304188182E0,-2.433750033E-1,-5.475249887E-1,-9.944000244E-1
3.306721723E0,-2.274249941E-1,-6.199874878E-1,-9.816125035E-1
3.309255490E0,-2.135374993E-1,-6.795250177E-1,-9.624999762E-1
3.311789088E0,-2.072124928E-1,-7.306749821E-1,-9.337624907E-1
3.314322856E0,-2.083124965E-1,-7.657374740E-1,-8.985624909E-1
3.316856473E0,-2.157374918E-1,-7.848500013E-1,-8.603374958E-1
3.319390240E0,-2.209624946E-1,-7.987374663E-1,-8.305000067E-1
3.321923872E0,-2.177999914E-1,-8.232125044E-1,-8.262374997E-1
3.324457639E0,-2.083124965E-1,-8.903124928E-1,-8.390250206E-1
3.326991256E0,-2.040500045E-1,-9.530124664E-1,-8.603374958E-1
3.329525024E0,-1.944250017E-1,-9.967374802E-1,-8.783500195E-1
3.332058656E0,-1.859000027E-1,-1.027537465E0,-8.953999877E-1
3.334592194E0,-1.784749925E-1,-1.030699968E0,-8.698250055E-1
3.337125962E0,-1.795749962E-1,-9.679999948E-1,-7.006999850E-1
3.339659579E0,-1.795749962E-1,-8.221125007E-1,-5.101249814E-1
3.342193355E0,-1.901624948E-1,-7.114250064E-1,-5.186499953E-1
3.344726973E0,-2.018499970E-1,-7.497875094E-1,-6.708624959E-1
3.347260740E0,-1.742125005E-1,-8.593750000E-1,-7.889750004E-1
3.349794357E0,-1.295250058E-1,-9.105250239E-1,-8.273375034E-1
3.352328125E0,-1.093124971E-1,-8.476874828E-1,-7.517125010E-1
3.354861742E0,-1.230624989E-1,-7.071624994E-1,-6.070625186E-1
3.357395509E0,-1.603250057E-1,-5.486249924E-1,-5.271750093E-1
3.359929127E0,-1.901624948E-1,-5.061374903E-1,-6.133875251E-1
3.362462670E0,-1.933249980E-1,-5.762624741E-1,-7.655999660E-1
3.364996437E0,-1.645874977E-1,-6.806250215E-1,-8.890749812E-1
3.367530055E0,-1.167374998E-1,-7.625749707E-1,-9.645624757E-1
3.370063822E0,-7.837499678E-2,-7.603750229E-1,-9.550749660E-1
3.372597429E0,-5.499999970E-2,-7.019374967E-1,-8.985624909E-1
3.375131197E0,-5.389999971E-2,-6.518874764E-1,-8.039624691E-1
3.377664814E0,-6.668750197E-2,-6.380000114E-1,-7.294374704E-1
3.380198581E0,-7.631249726E-2,-6.635749936E-1,-7.431874871E-1
3.382732180E0,-6.888750196E-2,-7.401624918E-1,-7.602375150E-1
3.385265947E0,-4.331250116E-2,-8.168874979E-1,-7.687624693E-1
3.387799564E0,-1.457499992E-2,-8.795874715E-1,-8.347625136E-1
3.390333103E0,2.268750034E-2,-9.476500154E-1,-8.942999840E-1
3.392866851E0,5.884999782E-2,-9.967374802E-1,-9.220749736E-1
3.395400468E0,8.648750186E-2,-1.010487437E0,-9.081875086E-1
3.397934312E0,9.817499667E-2,-9.956374764E-1,-8.529124856E-1
3.400467853E0,9.184999764E-2,-9.732249975E-1,-7.687624693E-1
3.403001634E0,6.627500057E-2,-9.444875121E-1,-6.719624996E-1
3.405535252E0,3.011249937E-2,-9.285374880E-1,-5.740625262E-1
3.408069019E0,-8.112499490E-3,-9.222124815E-1,-4.782249928E-1
3.410602636E0,-4.441250116E-2,-9.168499708E-1,-3.877499998E-1
3.413136424E0,-7.947500050E-2,-8.912749887E-1,-3.068999946E-1
3.415670042E0,-1.167374998E-1,-8.402624726E-1,-2.143625021E-1
3.418203580E0,-1.625249982E-1,-7.677999735E-1,-1.153625026E-1
3.420737347E0,-2.083124965E-1,-6.826875210E-1,-2.378750034E-2
3.423270969E0,-2.487374991E-1,-5.890499949E-1,5.816249922E-2
3.425804736E0,-2.869625092E-1,-4.996750057E-1,1.368124932E-1
3.428338359E0,-3.179000020E-1,-4.123624861E-1,1.953874975E-1
3.430872079E0,-3.423750103E-1,-3.315125108E-1,2.443374991E-1
3.433405784E0,-3.636874855E-1,-2.634499967E-1,2.912249863E-1
3.435939510E0,-3.827999830E-1,-2.165624946E-1,3.305499852E-1
3.438473128E0,-4.083749950E-1,-1.911250055E-1,3.698749840E-1
3.441006895E0,-4.328500032E-1,-1.761374921E-1,4.135999978E-1
3.443540435E0,-4.625499845E-1,-1.857624948E-1,4.560874999E-1
3.446074025E0,-4.955500066E-1,-2.230249941E-1,4.879874885E-1
3.448607794E0,-5.148000121E-1,-2.282499969E-1,5.454624891E-1
3.451141411E0,-5.274500251E-1,-2.113374919E-1,6.114624739E-1
3.453675256E0,-5.285499692E-1,-1.974499971E-1,6.763625145E-1
3.456208825E0,-5.350124836E-1,-1.772374958E-1,7.391999960E-1
3.458742592E0,-5.392749906E-1,-1.495999992E-1,7.987374663E-1
3.461276210E0,-5.435374975E-1,-1.293874979E-1,8.467249870E-1
3.463809977E0,-5.519250035E-1,-1.038125008E-1,8.882499933E-1
3.466343584E0,-5.572875142E-1,-6.875000149E-2,9.233124852E-1
3.468877352E0,-5.594875216E-1,-2.612499893E-2,9.520499706E-1
3.471410892E0,-5.530250072E-1,2.282499894E-2,9.807875156E-1
3.473944736E0,-5.478000045E-1,8.030000329E-2,9.978374839E-1
3.476478296E0,-5.413374901E-1,1.409374923E-1,1.010625005E0
3.479012140E0,-5.359749794E-1,2.123000026E-1,1.016950011E0
3.481545680E0,-5.222250223E-1,2.963125110E-1,1.019150019E0
3.484079296E0,-5.051749945E-1,3.740000129E-1,1.012687445E0
3.486613063E0,-4.838624895E-1,4.379374981E-1,1.004162550E0
3.489146680E0,-4.636499882E-1,5.017374754E-1,9.913749695E-1
3.491680448E0,-4.423374832E-1,5.709000230E-1,9.796875119E-1
3.494214065E0,-4.169000089E-1,6.411625147E-1,9.616749883E-1
3.496747832E0,-3.785375059E-1,7.177500129E-1,9.381625056E-1
3.499281450E0,-3.359124959E-1,7.965375185E-1,9.105250239E-1
3.501814988E0,-2.965874970E-1,8.699625134E-1,8.797249794E-1
3.504348755E0,-2.572624981E-1,9.348624945E-1,8.562124968E-1
3.506882388E0,-2.167000026E-1,9.986624718E-1,8.307750225E-1
3.509416155E0,-1.784749925E-1,1.057237506E0,8.029999733E-1
3.511949772E0,-1.497374922E-1,1.111549973E0,7.753624916E-1
3.514483540E0,-1.209999993E-1,1.156237483E0,7.519875169E-1
3.517017137E0,-9.336250275E-2,1.202987552E0,7.286124825E-1
3.519550904E0,-6.242499873E-2,1.248775005E0,7.073000073E-1
3.522084522E0,-2.736249939E-2,1.283975005E0,6.839249730E-1
3.524618289E0,3.574999981E-3,1.305150032E0,6.615124941E-1
3.527151906E0,3.657500073E-2,1.321237445E0,6.424000263E-1
3.529685445E0,6.201250106E-2,1.329625010E0,6.231499910E-1
3.532219289E0,8.442500234E-2,1.325362444E0,6.040375233E-1
3.534752829E0,1.142624989E-1,1.320137501E0,5.923500061E-1
3.537286607E0,1.396999955E-1,1.316974998E0,5.912500024E-1
3.539820224E0,1.610125005E-1,1.298825026E0,5.849249959E-1
3.542353991E0,1.748999953E-1,1.262662530E0,5.827249885E-1
3.544887609E0,1.727000028E-1,1.219074965E0,5.838249922E-1
3.547421371E0,1.632124931E-1,1.159399986E0,5.891875029E-1
3.549954988E0,1.461624950E-1,1.093400002E0,5.901499987E-1
3.552488755E0,1.259499937E-1,1.021075010E0,5.806624889E-1
3.555022296E0,1.035374999E-1,9.369249940E-1,5.689749718E-1
3.557556159E0,8.978749812E-2,8.497499824E-1,5.539875031E-1
3.560089700E0,8.648750186E-2,7.741249800E-1,5.369374752E-1
3.562623315E0,9.295000136E-2,6.986374855E-1,5.135625005E-1
3.565157082E0,9.721250087E-2,6.283749938E-1,4.955500066E-1
3.567690700E0,1.003749967E-1,5.634750128E-1,4.742375016E-1
3.570224467E0,1.003749967E-1,4.954124987E-1,4.518249929E-1
3.572758084E0,9.184999764E-2,4.294124842E-1,4.263874888E-1
3.575291851E0,8.126249909E-2,3.719374835E-1,4.028750062E-1
3.577825474E0,6.737499684E-2,3.196874857E-1,3.837625086E-1
3.580359012E0,5.252499878E-2,2.771999836E-1,3.570874929E-1
3.582892779E0,3.863750026E-2,2.462625057E-1,3.273875117E-1
3.585426626E0,1.526249945E-2,2.132624984E-1,3.049750030E-1
3.587960214E0,-6.049999967E-3,1.803999990E-1,2.773374915E-1
3.590493753E0,-1.883750036E-2,1.516624987E-1,2.465374917E-1
3.593027520E0,-3.368749842E-2,1.303499937E-1,2.209624946E-1
3.595561137E0,-5.183750018E-2,1.164624989E-1,1.975875050E-1
3.598094890E0,-6.888750196E-2,1.005124971E-1,1.805374920E-1
3.600628508E0,-8.799999952E-2,7.823749632E-2,1.581249982E-1
3.603162275E0,-1.039500013E-1,4.839999974E-2,1.368124932E-1
3.605695892E0,-1.199000031E-1,1.649999991E-2,1.273249984E-1
3.608229431E0,-1.306249946E-1,-2.186249942E-2,1.187999994E-1
3.610763275E0,-1.358499974E-1,-6.448750198E-2,1.102750003E-1
3.613296815E0,-1.358499974E-1,-1.058750004E-1,1.091749966E-1
3.615830660E0,-1.315875053E-1,-1.388749927E-1,1.156374961E-1
3.618364176E0,-1.209999993E-1,-1.740749925E-1,1.165999994E-1
3.620897943E0,-1.028499976E-1,-1.974499971E-1,1.187999994E-1
3.623431561E0,-8.579999954E-2,-2.102375031E-1,1.208624989E-1
3.625965328E0,-6.984999776E-2,-2.123000026E-1,1.165999994E-1
3.628498925E0,-5.816249922E-2,-2.134000063E-1,1.123374999E-1
3.631032693E0,-4.963750020E-2,-2.165624946E-1,1.113749966E-1
3.633566310E0,-5.389999971E-2,-2.219250053E-1,1.071124971E-1
3.636100077E0,-6.242499873E-2,-2.208250016E-1,9.748750180E-2
3.638633681E0,-5.926249921E-2,-2.123000026E-1,1.038125008E-1
3.641167448E0,-1.773750037E-2,-1.750375032E-1,1.538625062E-1
3.643701065E0,5.142499879E-2,-7.823749632E-2,2.220624983E-1
3.646234604E0,1.046374962E-1,4.303750023E-2,2.528625131E-1
3.648768366E0,1.439625025E-1,1.473999918E-1,2.571249902E-1
3.651301983E0,1.567499936E-1,2.132624984E-1,2.294874936E-1
3.653835751E0,1.439625025E-1,2.473624945E-1,1.688500047E-1
3.656369368E0,1.152250022E-1,2.623499930E-1,9.858749807E-2
3.658903130E0,6.737499684E-2,2.718375027E-1,2.722499892E-2
3.661436748E0,4.537499975E-3,2.846249938E-1,-5.582499877E-2
3.663970286E0,-6.242499873E-2,2.994749844E-1,-1.324124932E-1
3.666504130E0,-1.135749966E-1,3.196874857E-1,-2.047374994E-1
3.669037875E0,-1.465750039E-1,3.409999907E-1,-2.675749958E-1
3.671571493E0,-1.699499935E-1,3.548874855E-1,-3.228499889E-1
3.674105031E0,-1.731124967E-1,3.526875079E-1,-3.623124957E-1
3.676638799E0,-1.560624987E-1,3.452624977E-1,-3.845874965E-1
3.679172426E0,-1.337874979E-1,3.378374875E-1,-3.910500109E-1
3.681706193E0,-1.145374998E-1,3.346749842E-1,-3.834874928E-1
3.684239811E0,-9.858749807E-2,3.282124996E-1,-3.654749990E-1
3.686773578E0,-8.483749628E-2,3.239499927E-1,-3.367374837E-1
3.689307181E0,-7.837499678E-2,3.261500001E-1,-3.057999909E-1
3.691840948E0,-8.483749628E-2,3.250499964E-1,-2.750000060E-1
3.694374489E0,-1.060125008E-1,3.196874857E-1,-2.419999987E-1
3.696908333E0,-1.241625026E-1,3.196874857E-1,-2.089999914E-1
3.699441926E0,-1.432749927E-1,3.272500038E-1,-1.867250055E-1
3.701975465E0,-1.710499972E-1,3.357749879E-1,-1.632124931E-1
3.704509232E0,-1.870000064E-1,3.409999907E-1,-1.494625062E-1
3.707042850E0,-2.029500008E-1,3.495250046E-1,-1.409374923E-1
3.709576626E0,-2.092749923E-1,3.612124920E-1,-1.430000067E-1
3.712110243E0,-2.103749961E-1,3.708375096E-1,-1.461624950E-1
3.714644010E0,-2.124374956E-1,3.804624975E-1,-1.537249982E-1
3.717177628E0,-2.199999988E-1,3.814249933E-1,-1.589500010E-1
3.719711395E0,-2.285249978E-1,3.782624900E-1,-1.685750037E-1
3.722245012E0,-2.305874974E-1,3.793624938E-1,-1.782000065E-1
3.724778780E0,-2.359499931E-1,3.750999868E-1,-1.834249943E-1
3.727312397E0,-2.402125001E-1,3.687750101E-1,-1.845249981E-1
3.729845926E0,-2.454375029E-1,3.612124920E-1,-1.791625023E-1
3.732379693E0,-2.646875083E-1,3.474625051E-1,-1.611499935E-1
3.734913310E0,-2.923249900E-1,3.218874931E-1,-1.292500049E-1
3.737447077E0,-3.145999908E-1,2.994749844E-1,-7.699999958E-2
3.739980676E0,-3.349500000E-1,3.027749956E-1,-1.856249943E-2
3.742514443E0,-3.466374874E-1,3.229874969E-1,2.942499891E-2
3.745048060E0,-3.508999944E-1,3.452624977E-1,6.338749826E-2
3.747581599E0,-3.518624902E-1,3.443000019E-1,7.617499679E-2
3.750115466E0,-3.551625013E-1,3.346749842E-1,7.411249727E-2
3.752649235E0,-3.572250009E-1,3.165250123E-1,5.486249924E-2
3.755182853E0,-3.594250083E-1,2.963125110E-1,3.368749842E-2
3.757716391E0,-3.561249971E-1,2.750000060E-1,7.012499962E-3
3.760250182E0,-3.529624939E-1,2.538250089E-1,-2.378750034E-2
3.762783800E0,-3.455374837E-1,2.419999987E-1,-5.156249925E-2
3.765317567E0,-3.327499926E-1,2.399374992E-1,-6.957499683E-2
3.767851184E0,-3.199625015E-1,2.356749922E-1,-8.882500231E-2
3.770384938E0,-3.082749844E-1,2.336124927E-1,-9.624999762E-2
3.772918555E0,-2.997500002E-1,2.367749959E-1,-9.624999762E-2
3.775452322E0,-2.934249938E-1,2.345750034E-1,-9.404999763E-2
3.777985940E0,-2.891624868E-1,2.345750034E-1,-9.295000136E-2
3.780519712E0,-2.849000096E-1,2.345750034E-1,-8.882500231E-2
3.783053329E0,-2.858625054E-1,2.356749922E-1,-8.456250280E-2
3.785586868E0,-2.858625054E-1,2.314125001E-1,-8.236250281E-2
3.788120635E0,-2.849000096E-1,2.208250016E-1,-8.236250281E-2
3.790654495E0,-2.817375064E-1,2.154625058E-1,-8.236250281E-2
3.793188036E0,-2.732124925E-1,2.111999989E-1,-8.030000329E-2
3.795721651E0,-2.699125111E-1,2.026749998E-1,-7.699999958E-2
3.798255418E0,-2.678500116E-1,1.952500045E-1,-7.273750007E-2
3.800789055E0,-2.613874972E-1,1.846625060E-1,-6.847500056E-2
3.803322822E0,-2.518999875E-1,1.643124968E-1,-6.847500056E-2
3.805856439E0,-2.411749959E-1,1.431374997E-1,-6.957499683E-2
3.808390206E0,-2.231625021E-1,1.186624989E-1,-7.383749634E-2
3.810923829E0,-1.964875013E-1,9.308750182E-2,-7.919999957E-2
3.813457367E0,-1.677500010E-1,6.435000151E-2,-8.456250280E-2
3.815991135E0,-1.454750001E-1,3.767500073E-2,-8.978749812E-2
3.818524752E0,-1.315875053E-1,8.937500417E-3,-8.552499861E-2
3.821058538E0,-1.241625026E-1,-1.869999990E-2,-7.919999957E-2
3.823592156E0,-1.273249984E-1,-3.891250119E-2,-6.847500056E-2
3.826125923E0,-1.315875053E-1,-4.949999973E-2,-5.582499877E-2
3.828659540E0,-1.347499937E-1,-5.266249925E-2,-3.973750025E-2
3.831193307E0,-1.369500011E-1,-5.596249923E-2,-2.062499896E-2
3.833726925E0,-1.369500011E-1,-6.118749827E-2,-3.574999981E-3
3.836260692E0,-1.273249984E-1,-5.692499876E-2,1.017499994E-2
3.838794309E0,-1.187999994E-1,-5.059999973E-2,2.406249940E-2
3.841327853E0,-1.071124971E-1,-4.097500071E-2,3.464999795E-2
3.843861697E0,-9.006249905E-2,-2.928750031E-2,4.207500070E-2
3.846395238E0,-7.631249726E-2,-1.443750039E-2,4.633750021E-2
3.848929082E0,-5.816249922E-2,3.712499980E-3,5.169999972E-2
3.851462627E0,-4.647500068E-2,2.076249942E-2,5.912499875E-2
3.853996394E0,-3.588749841E-2,4.413750023E-2,5.912499875E-2
3.856530012E0,-2.516249940E-2,6.861250103E-2,6.558749825E-2
3.859063779E0,-2.516249940E-2,9.308750182E-2,7.507500052E-2
3.861597424E0,-2.089999989E-2,1.218250021E-1,8.153750002E-2
3.864131192E0,-1.567500085E-2,1.505624950E-1,8.896250278E-2
3.866664809E0,-1.141249947E-2,1.771000028E-1,9.212499857E-2
3.869198348E0,-8.112499490E-3,2.091374993E-1,9.432499856E-2
3.871732111E0,4.537499975E-3,2.345750034E-1,8.689999580E-2
3.874265957E0,2.268750034E-2,2.538250089E-1,6.984999776E-2
3.876799497E0,4.083750024E-2,2.697750032E-1,4.743750021E-2
3.879333113E0,6.737499684E-2,2.857249975E-1,2.832499892E-2
3.881866880E0,9.184999764E-2,3.048374951E-1,1.237499993E-2
3.884400497E0,1.142624989E-1,3.122625053E-1,-1.512499992E-3
3.886934265E0,1.354375035E-1,3.187249899E-1,-1.113750041E-2
3.889467882E0,1.482249945E-1,3.133625090E-1,-2.708750032E-2
3.892001677E0,1.493249983E-1,3.005749881E-1,-3.877500072E-2
3.894535295E0,1.396999955E-1,2.750000060E-1,-5.156249925E-2
3.897068833E0,1.270499974E-1,2.410375029E-1,-6.641250104E-2
3.899602600E0,1.216875017E-1,2.091374993E-1,-7.809999585E-2
3.902136463E0,1.216875017E-1,1.846625060E-1,-8.456250280E-2
3.904670080E0,1.280124933E-1,1.622499973E-1,-9.088750184E-2
3.907203618E0,1.365374923E-1,1.463000029E-1,-1.005124971E-1
3.909737386E0,1.493249983E-1,1.271875054E-1,-1.036750004E-1
3.912271017E0,1.567499936E-1,1.112374961E-1,-1.047749966E-1
3.914804784E0,1.641750038E-1,9.844999760E-2,-1.090374961E-1
3.917338402E0,1.695374995E-1,8.030000329E-2,-1.142624989E-1
3.919872169E0,1.684374958E-1,5.472499877E-2,-1.207249984E-1
3.922405757E0,1.504250020E-1,1.649999991E-2,-1.335124969E-1
3.924939296E0,1.216875017E-1,-3.148749843E-2,-1.451999992E-1
3.927473140E0,8.126249909E-2,-8.676250279E-2,-1.430000067E-1
3.930006909E0,3.327500075E-2,-1.293874979E-1,-1.292500049E-1
3.932540546E0,-8.112499490E-3,-1.453374922E-1,-1.079374999E-1
3.935074084E0,-3.904999793E-2,-1.431374997E-1,-8.236250281E-2
3.937607851E0,-6.132499874E-2,-1.388749927E-1,-6.531249732E-2
3.940141469E0,-6.558749825E-2,-1.399749964E-1,-5.678749830E-2
3.942675246E0,-6.558749825E-2,-1.559250057E-1,-5.678749830E-2
3.945208863E0,-5.706249923E-2,-1.825999916E-1,-6.104999781E-2
3.947742631E0,-4.867500067E-2,-2.176624984E-1,-7.273750007E-2
3.950276248E0,-4.757500067E-2,-2.580874860E-1,-8.662500232E-2
3.952810001E0,-4.757500067E-2,-2.985124886E-1,-9.515000135E-2
3.955343619E0,-5.183750018E-2,-3.400374949E-1,-1.047749966E-1
3.957877386E0,-5.499999970E-2,-3.698749840E-1,-1.079374999E-1
3.960411003E0,-5.926249921E-2,-4.017750025E-1,-1.079374999E-1
3.962944755E0,-6.668750197E-2,-4.325749874E-1,-1.057374999E-1
3.965478296E0,-7.411249727E-2,-4.624125063E-1,-1.014750004E-1
3.968011909E0,-8.057499677E-2,-4.857875109E-1,-9.624999762E-2
3.970545678E0,-8.799999952E-2,-4.965125024E-1,-8.662500232E-2
3.973079253E0,-9.762500226E-2,-5.081999898E-1,-9.515000135E-2
3.975613020E0,-1.028499976E-1,-5.241500139E-1,-1.068374962E-1
3.978146638E0,-1.007874981E-1,-5.517874956E-1,-1.185249984E-1
3.980680405E0,-9.762500226E-2,-5.805249810E-1,-1.324124932E-1
3.983214017E0,-9.116250277E-2,-6.050000191E-1,-1.537249982E-1
3.985747784E0,-7.947500050E-2,-6.305750012E-1,-1.782000065E-1
3.988281402E0,-7.315000147E-2,-6.582124829E-1,-2.058375031E-1
3.990815169E0,-6.888750196E-2,-6.923124790E-1,-2.345750034E-1
3.993348709E0,-6.668750197E-2,-7.264124751E-1,-2.611125112E-1
3.995882323E0,-7.631249726E-2,-7.657374740E-1,-2.909500003E-1
3.998416092E0,-9.432499856E-2,-8.157874942E-1,-3.100624979E-1
4.000949709E0,-1.135749966E-1,-8.647375107E-1,-3.217499852E-1
4.003483482E0,-1.369500011E-1,-9.105250239E-1,-3.356375098E-1
4.006017099E0,-1.582625061E-1,-9.552124739E-1,-3.441624939E-1
4.008550866E0,-1.742125005E-1,-9.956374764E-1,-3.623124957E-1
4.011084407E0,-1.847999990E-1,-1.054075003E0,-3.760625124E-1
4.013618255E0,-1.955250055E-1,-1.135062456E0,-3.740000129E-1
4.016151872E0,-2.040500045E-1,-1.217012525E0,-3.654749990E-1
4.018685640E0,-2.061125040E-1,-1.285074949E0,-3.580499887E-1
4.021219180E0,-1.955250055E-1,-1.335124969E0,-3.463625014E-1
4.023752769E0,-1.742125005E-1,-1.369087458E0,-3.324750066E-1
4.026286539E0,-1.454750001E-1,-1.393562436E0,-3.111625016E-1
4.028820156E0,-1.102750003E-1,-1.404287457E0,-2.824249864E-1
4.031353923E0,-8.483749628E-2,-1.408550024E0,-2.440624982E-1
4.033887551E0,-7.741250098E-2,-1.402087450E0,-2.026749998E-1
4.036421318E0,-7.411249727E-2,-1.381875038E0,-1.515250057E-1
4.038954935E0,-7.411249727E-2,-1.338287473E0,-9.941250086E-2
4.041488703E0,-7.631249726E-2,-1.283975005E0,-5.046249926E-2
4.044022310E0,-6.462500244E-2,-1.207387447E0,-1.209999993E-2
4.046556077E0,-2.626249939E-2,-1.085012436E0,7.012499962E-3
4.049089618E0,3.753750026E-2,-9.444875121E-1,1.649999991E-3
4.051623231E0,1.014750004E-1,-8.359999657E-1,-3.561250120E-2
4.054156976E0,1.482249945E-1,-7.636749744E-1,-9.721250087E-2
4.056690594E0,1.695374995E-1,-6.986374855E-1,-1.717374921E-1
4.059224361E0,1.706375033E-1,-6.294749975E-1,-2.451625019E-1
4.061757978E0,1.632124931E-1,-5.508249998E-1,-3.207874894E-1
4.064291726E0,1.695374995E-1,-4.655750096E-1,-3.953124881E-1
4.066825343E0,1.823250055E-1,-3.730374873E-1,-4.644750059E-1
4.069359110E0,2.056999952E-1,-2.996124923E-1,-5.399624705E-1
4.071892728E0,2.281125039E-1,-2.666125000E-1,-6.165499687E-1
4.074426485E0,2.375999987E-1,-2.719750106E-1,-6.815875173E-1
4.076960025E0,2.333374918E-1,-2.910875082E-1,-7.336999774E-1
4.079493639E0,2.206874937E-1,-3.209249973E-1,-7.687624693E-1
4.082027408E0,2.047374994E-1,-3.602499962E-1,-7.921375036E-1
4.084561025E0,1.929125041E-1,-4.123624861E-1,-8.091874719E-1
4.087094793E0,1.929125041E-1,-4.698374867E-1,-8.123499751E-1
4.089628410E0,1.940124929E-1,-5.358374715E-1,-8.071249723E-1
4.092162177E0,1.993750036E-1,-6.050000191E-1,-7.964000106E-1
4.094695790E0,2.110625058E-1,-6.752625108E-1,-7.815499902E-1
4.097229557E0,2.259124964E-1,-7.433249950E-1,-7.581750154E-1
4.099763174E0,2.398000062E-1,-8.083624840E-1,-7.251750231E-1
4.102296941E0,2.536875010E-1,-8.593750000E-1,-6.879125237E-1
4.104830569E0,2.600125074E-1,-9.051625133E-1,-6.474875212E-1
4.107364336E0,2.557500005E-1,-9.327999949E-1,-6.091250181E-1
4.109897877E0,2.503874898E-1,-9.444875121E-1,-5.698000193E-1
4.112431721E0,2.440624982E-1,-9.466875196E-1,-5.431249738E-1
4.114965266E0,2.323749959E-1,-9.498500228E-1,-5.240125060E-1
4.117498882E0,2.121624947E-1,-9.455875158E-1,-5.058624744E-1
4.120032649E0,1.919499934E-1,-9.413250089E-1,-4.889499843E-1
4.122566266E0,1.748999953E-1,-9.296374917E-1,-4.739624858E-1
4.125100042E0,1.524875015E-1,-9.231749773E-1,-4.602124989E-1
4.127633660E0,1.333750039E-1,-9.200124741E-1,-4.548499882E-1
4.130167427E0,1.131625026E-1,-9.222124815E-1,-4.452250004E-1
4.132701044E0,9.611249715E-2,-9.435250163E-1,-4.314749837E-1
4.135234860E0,8.222500235E-2,-9.754250050E-1,-4.207499921E-1
4.137768400E0,7.699999958E-2,-1.005125046E0,-4.036999941E-1
4.140302014E0,8.016250283E-2,-1.027537465E0,-3.845874965E-1
4.142835860E0,9.501250088E-2,-1.015849948E0,-3.580499887E-1
4.145369410E0,1.088999957E-1,-1.013649940E0,-3.293125033E-1
4.147903177E0,1.131625026E-1,-1.034962535E0,-2.983750105E-1
4.150436795E0,1.237500012E-1,-1.038125038E0,-2.770625055E-1
4.152970562E0,1.387374997E-1,-9.976999760E-1,-2.525874972E-1
4.155504198E0,1.376374960E-1,-9.296374917E-1,-2.249500006E-1
4.158037966E0,1.322750002E-1,-8.658375144E-1,-2.026749998E-1
4.160571583E0,1.322750002E-1,-8.189499974E-1,-1.930499971E-1
4.163105121E0,1.322750002E-1,-7.859500051E-1,-1.845249981E-1
4.165638971E0,1.302125007E-1,-7.444249988E-1,-1.759999990E-1
4.168172511E0,1.280124933E-1,-6.869499683E-1,-1.728374958E-1
4.170706355E0,1.237500012E-1,-6.263124943E-1,-1.674750000E-1
4.173239896E0,1.131625026E-1,-5.677375197E-1,-1.643124968E-1
4.175773682E0,1.057374999E-1,-5.167250037E-1,-1.611499935E-1
4.178307299E0,9.295000136E-2,-4.698374867E-1,-1.632124931E-1
4.180841067E0,7.479999959E-2,-4.230875075E-1,-1.643124968E-1
4.183374684E0,5.678749830E-2,-3.836250007E-1,-1.665125042E-1
4.185908490E0,4.083750024E-2,-3.431999981E-1,-1.674750000E-1
4.188442108E0,1.732499897E-2,-2.996124923E-1,-1.717374921E-1
4.190975875E0,-6.874999963E-4,-2.560249865E-1,-1.759999990E-1
4.193509415E0,-1.773750037E-2,-2.155999988E-1,-1.759999990E-1
4.196043259E0,-2.736249939E-2,-1.815000027E-1,-1.728374958E-1
4.198576800E0,-3.162499890E-2,-1.505624950E-1,-1.685750037E-1
4.201110644E0,-2.832499892E-2,-1.260875016E-1,-1.589500010E-1
4.203644185E0,-2.199999988E-2,-1.058750004E-1,-1.472624987E-1
4.206177814E0,-1.237499993E-2,-8.992499858E-2,-1.335124969E-1
4.208711581E0,-1.787499990E-3,-7.713750005E-2,-1.121999994E-1
4.211245427E0,1.306249946E-2,-7.191249728E-2,-9.198749810E-2
4.213778968E0,3.547500074E-2,-6.764999777E-2,-7.067500055E-2
4.216312612E0,6.201250106E-2,-6.544999778E-2,-5.156249925E-2
4.218846379E0,8.868750185E-2,-6.544999778E-2,-3.987500072E-2
4.221379997E0,1.109625027E-1,-6.022499874E-2,-2.804999985E-2
4.223913764E0,1.280124933E-1,-5.596249923E-2,-1.429999992E-2
4.226447396E0,1.387374997E-1,-5.802499875E-2,-2.612499986E-3
4.228981164E0,1.419000030E-1,-6.448750198E-2,-1.512499992E-3
4.231514781E0,1.419000030E-1,-7.507500052E-2,1.649999991E-3
4.234048320E0,1.396999955E-1,-8.566249907E-2,3.849999979E-3
4.236582091E0,1.387374997E-1,-9.418749809E-2,1.649999991E-3
4.239115708E0,1.333750039E-1,-1.080750003E-1,-7.837500423E-3
4.241649475E0,1.354375035E-1,-1.260875016E-1,-2.488750033E-2
4.244183093E0,1.376374960E-1,-1.527625024E-1,-3.024999984E-2
4.246716894E0,1.482249945E-1,-1.815000027E-1,-2.708750032E-2
4.249250511E0,1.663749963E-1,-2.102375031E-1,-1.636249945E-2
4.251784050E0,1.812250018E-1,-2.410375029E-1,-3.574999981E-3
4.254317894E0,1.962125003E-1,-2.677125037E-1,1.237499993E-2
4.256851668E0,2.142249942E-1,-2.974124849E-1,2.942499891E-2
4.259385286E0,2.270125002E-1,-3.283500075E-1,4.427500069E-2
4.261918824E0,2.429624945E-1,-3.570874929E-1,6.228749827E-2
4.264452668E0,2.622124851E-1,-3.869250119E-1,8.043749630E-2
4.266986199E0,2.759625018E-1,-4.177249968E-1,9.212499857E-2
4.269519966E0,2.759625018E-1,-4.496249855E-1,9.748750180E-2
4.272053583E0,2.653749883E-1,-4.624125063E-1,1.017500013E-1
4.274587351E0,2.557500005E-1,-4.666749835E-1,1.134374961E-1
4.277120983E0,2.514874935E-1,-4.688749909E-1,1.251250058E-1
4.279654750E0,2.514874935E-1,-4.688749909E-1,1.358499974E-1
4.282188368E0,2.418625057E-1,-4.646124840E-1,1.527625024E-1
4.284722135E0,2.270125002E-1,-4.603500068E-1,1.644500047E-1
4.287255752E0,2.153249979E-1,-4.538874924E-1,1.783374995E-1
4.289789520E0,1.971749961E-1,-4.453625083E-1,1.879625022E-1
4.292323060E0,1.812250018E-1,-4.358749986E-1,1.931875050E-1
4.294856904E0,1.717374921E-1,-4.177249968E-1,2.039124966E-1
4.297390449E0,1.641750038E-1,-4.156624973E-1,2.209624946E-1
4.299924064E0,1.535875052E-1,-4.208875000E-1,2.358125001E-1
4.302457831E0,1.472624987E-1,-4.219875038E-1,2.549250126E-1
4.304991449E0,1.461624950E-1,-4.262500107E-1,2.708750069E-1
4.307525207E0,1.439625025E-1,-4.230875075E-1,2.921875119E-1
4.310058824E0,1.461624950E-1,-4.241875112E-1,3.220250010E-1
4.312592592E0,1.472624987E-1,-4.199250042E-1,3.422375023E-1
4.315126209E0,1.504250020E-1,-4.123624861E-1,3.613499999E-1
4.317659976E0,1.493249983E-1,-4.028750062E-1,3.783999979E-1
4.320193517E0,1.557874978E-1,-3.975124955E-1,3.933874965E-1
4.322727361E0,1.641750038E-1,-3.836250007E-1,4.071374834E-1
4.325260978E0,1.663749963E-1,-3.656125069E-1,4.145624936E-1
4.327794526E0,1.652749926E-1,-3.411374986E-1,4.145624936E-1
4.330328293E0,1.600500047E-1,-3.166624904E-1,4.060375094E-1
4.332861910E0,1.482249945E-1,-2.804999948E-1,3.933874965E-1
4.335395678E0,1.291124970E-1,-2.367749959E-1,3.795000017E-1
4.337929285E0,1.088999957E-1,-1.868624985E-1,3.720749915E-1
4.340463052E0,8.648750186E-2,-1.303499937E-1,3.656125069E-1
4.342996670E0,5.362499878E-2,-7.081250101E-2,3.603875041E-1
4.345530437E0,2.062499896E-2,-1.966249943E-2,3.667125106E-1
4.348064059E0,1.374999993E-3,2.392499894E-2,3.869250119E-1
4.350597598E0,-1.347499993E-2,6.118749827E-2,4.102999866E-1
4.353131442E0,-2.736249939E-2,9.308750182E-2,4.369750023E-1
4.355665211E0,-3.478749841E-2,1.153625026E-1,4.751999974E-1
4.358198751E0,-3.588749841E-2,1.281500012E-1,5.157625079E-1
4.360732367E0,-2.832499892E-2,1.346125007E-1,5.614125133E-1
4.363266134E0,-1.663750038E-2,1.440999955E-1,6.082999706E-1
4.365799752E0,-1.787499990E-3,1.559250057E-1,6.572499871E-1
4.368333519E0,-2.887499984E-3,1.835625023E-1,6.956124902E-1
4.370867136E0,-1.773750037E-2,2.217874974E-1,7.189875245E-1
4.373400903E0,-1.347499993E-2,2.431000024E-1,7.360374928E-1
4.375934521E0,-1.031249948E-2,2.761000097E-1,7.477250099E-1
4.378468288E0,-1.141249947E-2,3.198249936E-1,7.562500238E-1
4.381001828E0,3.574999981E-3,3.687750101E-1,7.775624990E-1
4.383535673E0,2.914999984E-2,4.229499996E-1,8.020374775E-1
4.386069290E0,5.032499880E-2,4.602124989E-1,8.146874905E-1
4.388602828E0,5.884999782E-2,4.815250039E-1,8.179875016E-1
4.391136596E0,6.311249733E-2,4.974749982E-1,8.211500049E-1
4.393670213E0,6.531249732E-2,5.134249926E-1,8.232125044E-1
4.396203980E0,7.273750007E-2,5.336375237E-1,8.359999657E-1
4.398737593E0,7.809999585E-2,5.453249812E-1,8.562124968E-1
4.401271360E0,8.016250283E-2,5.506874919E-1,8.775249720E-1
4.403804977E0,8.648750186E-2,5.464249849E-1,8.988375068E-1
4.406338745E0,9.404999763E-2,5.443624854E-1,9.275749922E-1
4.408872357E0,1.003749967E-1,5.432624817E-1,9.574124813E-1
4.411406124E0,1.035374999E-1,5.495874882E-1,9.882124662E-1
4.413939742E0,1.046374962E-1,5.570124984E-1,1.019012451E0
4.416473280E0,1.152250022E-1,5.592125058E-1,1.046787500E0
4.419007052E0,1.259499937E-1,5.655375123E-1,1.067000031E0
4.421540670E0,1.344749928E-1,5.783249736E-1,1.084049940E0
4.424074514E0,1.354375035E-1,5.964750051E-1,1.098899961E0
4.426608054E0,1.354375035E-1,5.911124945E-1,1.118012547E0
4.429141832E0,1.482249945E-1,5.634750128E-1,1.152112484E0
4.431675491E0,1.589500010E-1,5.506874919E-1,1.192537546E0
4.434209164E0,1.567499936E-1,5.475249887E-1,1.227599978E0
4.436742834E0,1.515250057E-1,5.358374715E-1,1.256337523E0
4.439276601E0,1.419000030E-1,5.304750204E-1,1.277649999E0
4.441810218E0,1.376374960E-1,5.282750130E-1,1.287274957E0
4.444343757E0,1.365374923E-1,5.304750204E-1,1.276549935E0
4.446877519E0,1.365374923E-1,5.315750241E-1,1.264862537E0
4.449411136E0,1.396999955E-1,5.282750130E-1,1.245749950E0
4.451944980E0,1.407999992E-1,5.293750167E-1,1.214949965E0
4.454478521E0,1.430000067E-1,5.293750167E-1,1.187175035E0
4.457012288E0,1.461624950E-1,5.293750167E-1,1.161737442E0
4.459545906E0,1.493249983E-1,5.378999710E-1,1.127637506E0
4.462079673E0,1.578499973E-1,5.486249924E-1,1.090374947E0
4.464613290E0,1.641750038E-1,5.475249887E-1,1.048849940E0
4.467147062E0,1.652749926E-1,5.389999747E-1,1.008424997E0
4.469680680E0,1.684374958E-1,5.156250000E-1,9.690999985E-1
4.472214447E0,1.748999953E-1,4.868874848E-1,9.275749922E-1
4.474747988E0,1.854874939E-1,4.581499994E-1,8.914124966E-1
4.477281832E0,1.929125041E-1,4.272125065E-1,8.552500010E-1
4.479815372E0,1.982749999E-1,4.016374946E-1,8.168874979E-1
4.482348988E0,2.079000026E-1,3.836250007E-1,7.870500088E-1
4.484882755E0,2.142249942E-1,3.730374873E-1,7.540500164E-1
4.487416386E0,2.121624947E-1,3.697375059E-1,7.264124751E-1
4.489950153E0,2.067999989E-1,3.761999905E-1,7.050999999E-1
4.492483771E0,1.971749961E-1,3.867875040E-1,6.828249693E-1
4.495017538E0,1.823250055E-1,4.049375057E-1,6.593124866E-1
4.497551136E0,1.695374995E-1,4.229499996E-1,6.316750050E-1
4.500084675E0,1.557874978E-1,4.294124842E-1,5.891875029E-1
4.502618442E0,1.430000067E-1,4.294124842E-1,5.411999822E-1
4.505152060E0,1.302125007E-1,4.186874926E-1,4.965125024E-1
4.507685899E0,1.185249984E-1,4.038375020E-1,4.677749872E-1
4.510219439E0,1.025749967E-1,3.856875002E-1,4.423374832E-1
4.512753206E0,8.758749813E-2,3.665750027E-1,4.305124879E-1
4.515286824E0,7.273750007E-2,3.400374949E-1,4.273499846E-1
4.517820582E0,5.362499878E-2,3.091000021E-1,4.295499921E-1
4.520354199E0,2.914999984E-2,2.666125000E-1,4.316124916E-1
4.522887967E0,9.899999946E-3,2.134000063E-1,4.412375093E-1
4.525421584E0,-2.887499984E-3,1.590874940E-1,4.475624859E-1
4.527955346E0,-3.849999979E-3,1.069749966E-1,4.518249929E-1
4.530488887E0,-1.787499990E-3,5.582499877E-2,4.592500031E-1
4.533022500E0,5.637499969E-3,5.774999969E-3,4.742375016E-1
4.535556346E0,1.842499897E-2,-4.207500070E-2,4.965125024E-1
4.538089872E0,3.437500075E-2,-8.992499858E-2,5.209875107E-1
4.540623639E0,4.399999976E-2,-1.336500049E-1,5.476624966E-1
4.543157256E0,5.678749830E-2,-1.718750000E-1,5.784624815E-1
4.545691024E0,6.957499683E-2,-2.059749961E-1,6.093999743E-1
4.548224651E0,8.648750186E-2,-2.400749922E-1,6.381375194E-1
4.550758418E0,1.077999994E-1,-2.771999836E-1,6.657750010E-1
4.553292036E0,1.270499974E-1,-3.187249899E-1,6.976749897E-1
4.555825803E0,1.419000030E-1,-3.581874967E-1,7.317749858E-1
4.558359425E0,1.557874978E-1,-3.826625049E-1,7.583125234E-1
4.560893193E0,1.717374921E-1,-3.986124992E-1,7.764624953E-1
4.563426810E0,1.823250055E-1,-4.092000127E-1,7.944750190E-1
4.565960348E0,1.919499934E-1,-4.092000127E-1,8.168874979E-1
4.568494111E0,2.004749924E-1,-3.964124918E-1,8.402624726E-1
4.571027728E0,1.951124966E-1,-3.761999905E-1,8.562124968E-1
4.573561495E0,1.876875013E-1,-3.465000093E-1,8.573125005E-1
4.576095113E0,1.727000028E-1,-3.016749918E-1,8.370999694E-1
4.578628865E0,1.557874978E-1,-2.484624982E-1,8.168874979E-1
4.581162482E0,1.407999992E-1,-2.006125003E-1,8.009374738E-1
4.583696249E0,1.248499975E-1,-1.538625062E-1,7.924125195E-1
4.586229867E0,1.185249984E-1,-1.112374961E-1,7.977749705E-1
4.588763639E0,1.109625027E-1,-6.764999777E-2,8.040999770E-1
4.591297257E0,1.046374962E-1,-3.464999795E-2,8.157874942E-1
4.593831024E0,9.611249715E-2,-2.296249941E-2,8.317375183E-1
4.596364564E0,9.404999763E-2,-4.812499974E-3,8.476874828E-1
4.598898169E0,9.501250088E-2,1.429999992E-2,8.573125005E-1
4.601431938E0,9.831249714E-2,3.451250121E-2,8.626750112E-1
4.603965555E0,1.046374962E-1,4.413750023E-2,8.721625209E-1
4.606499322E0,1.142624989E-1,5.472499877E-2,8.839874864E-1
4.609032930E0,1.174250022E-1,8.676250279E-2,8.956750035E-1
4.611566697E0,1.174250022E-1,1.271875054E-1,9.031000137E-1
4.614100314E0,1.120624989E-1,1.611499935E-1,9.020000100E-1
4.616634082E0,9.831249714E-2,1.930499971E-1,8.945749998E-1
4.619167671E0,9.404999763E-2,2.197249979E-1,8.721625209E-1
4.621701438E0,9.404999763E-2,2.462625057E-1,8.328375220E-1
4.624234979E0,9.501250088E-2,2.655124962E-1,7.944750190E-1
4.626768592E0,9.927500039E-2,2.792625129E-1,7.508875132E-1
4.629302366E0,1.068374962E-1,2.910875082E-1,7.062000036E-1
4.631835984E0,1.088999957E-1,3.133625090E-1,6.518874764E-1
4.634369751E0,1.077999994E-1,3.346749842E-1,6.018375158E-1
4.636903368E0,1.099999994E-1,3.676750064E-1,5.487625003E-1
4.639437117E0,1.152250022E-1,4.070000052E-1,4.922499955E-1
4.641970734E0,1.099999994E-1,4.379374981E-1,4.358749986E-1
4.644504501E0,1.142624989E-1,4.613125026E-1,3.806000054E-1
4.647038119E0,1.194875017E-1,4.761624932E-1,3.294500113E-1
4.649571881E0,1.227874979E-1,4.889499843E-1,2.741749883E-1
4.652105421E0,1.333750039E-1,4.954124987E-1,2.198625058E-1
4.654639035E0,1.376374960E-1,4.963749945E-1,1.677500010E-1
4.657172804E0,1.439625025E-1,4.974749982E-1,1.134374961E-1
4.659706426E0,1.461624950E-1,4.900499880E-1,6.132499874E-2
4.662240194E0,1.493249983E-1,4.718999863E-1,1.333750039E-2
4.664773811E0,1.546874940E-1,4.336749911E-1,-3.877500072E-2
4.667307578E0,1.632124931E-1,3.836250007E-1,-9.088750184E-2
4.669841176E0,1.610125005E-1,3.102000058E-1,-1.409374923E-1
4.672374943E0,1.600500047E-1,2.239875048E-1,-1.791625023E-1
4.674908560E0,1.578499973E-1,1.590874940E-1,-2.121624947E-1
4.677442328E0,1.472624987E-1,1.036750004E-1,-2.356749922E-1
4.679975839E0,1.344749928E-1,4.303750023E-2,-2.516250014E-1
4.682509452E0,1.216875017E-1,-2.186249942E-2,-2.601499856E-1
4.685043222E0,1.057374999E-1,-9.212499857E-2,-2.622124851E-1
4.687576839E0,8.868750185E-2,-1.718750000E-1,-2.653749883E-1
4.690110597E0,7.163749635E-2,-2.560249865E-1,-2.707374990E-1
4.692644215E0,5.568749830E-2,-3.400374949E-1,-2.761000097E-1
4.695177982E0,3.973750025E-2,-4.199250042E-1,-2.761000097E-1
4.697711599E0,2.474999987E-2,-4.965125024E-1,-2.781625092E-1
4.700245386E0,1.099999994E-2,-5.634750128E-1,-2.750000060E-1
4.702779003E0,-6.049999967E-3,-6.274124980E-1,-2.739000022E-1
4.705312770E0,-2.516249940E-2,-6.923124790E-1,-2.770625055E-1
4.707846311E0,-4.757500067E-2,-7.529500127E-1,-2.761000097E-1
4.710379914E0,-7.411249727E-2,-8.104249835E-1,-2.846249938E-1
4.712913683E0,-1.039500013E-1,-8.668000102E-1,-2.963125110E-1
4.715447529E0,-1.347499937E-1,-9.147874713E-1,-3.154250085E-1
4.717981070E0,-1.656875014E-1,-9.572749734E-1,-3.345375061E-1
4.720514660E0,-1.922249943E-1,-1.000862479E0,-3.484250009E-1
4.723048428E0,-2.199999988E-1,-1.044587493E0,-3.547500074E-1
4.725582045E0,-2.433750033E-1,-1.081850052E0,-3.558500111E-1
4.728115812E0,-2.678500116E-1,-1.111549973E0,-3.463625014E-1
4.730649445E0,-2.891624868E-1,-1.128600001E0,-3.228499889E-1
4.733183212E0,-3.040125072E-1,-1.135062456E0,-2.920500040E-1
4.735716829E0,-3.210625052E-1,-1.127499938E0,-2.505249977E-1
4.738250368E0,-3.338499963E-1,-1.114850044E0,-2.015749961E-1
4.740784178E0,-3.466374874E-1,-1.100962520E0,-1.472624987E-1
4.743317718E0,-3.540624976E-1,-1.089275002E0,-8.456250280E-2
4.745851485E0,-3.551625013E-1,-1.074287534E0,-1.636249945E-2
4.748385103E0,-3.444375098E-1,-1.058337450E0,5.059999973E-2
4.750918851E0,-3.295874894E-1,-1.043487549E0,1.176999956E-1
4.753452469E0,-3.093749881E-1,-1.032899976E0,1.900250018E-1
4.755986236E0,-2.976875007E-1,-1.019012451E0,2.667500079E-1
4.758519853E0,-2.869625092E-1,-1.000862479E0,3.475999832E-1
4.761053591E0,-2.752749920E-1,-9.806500077E-1,4.347749949E-1
4.763587209E0,-2.624875009E-1,-9.552124739E-1,5.189250112E-1
4.766120747E0,-2.444749922E-1,-9.338999987E-1,5.977125168E-1
4.768654514E0,-2.220624983E-1,-9.222124815E-1,6.902499795E-1
4.771188370E0,-2.018499970E-1,-9.157499671E-1,7.870500088E-1
4.773721987E0,-1.688500047E-1,-8.934749961E-1,8.647375107E-1
4.776255525E0,-1.295250058E-1,-8.445249796E-1,9.136874676E-1
4.778789293E0,-9.968750179E-2,-7.965375185E-1,9.466875196E-1
4.781322939E0,-8.799999952E-2,-7.796249986E-1,9.785875082E-1
4.783856706E0,-8.057499677E-2,-7.062000036E-1,9.956374764E-1
4.786390324E0,-7.947500050E-2,-6.231499910E-1,1.014887452E0
4.788924091E0,-9.116250277E-2,-5.827249885E-1,1.025475025E0
4.791457679E0,-8.799999952E-2,-4.943124950E-1,1.019150019E0
4.793991447E0,-7.837499678E-2,-4.092000127E-1,1.011587501E0
4.796524987E0,-7.315000147E-2,-3.602499962E-1,9.998999834E-1
4.799058831E0,-6.558749825E-2,-2.857249975E-1,9.818875194E-1
4.801592372E0,-5.609999970E-2,-2.070749998E-1,9.435250163E-1
4.804125987E0,-5.183750018E-2,-1.463000029E-1,9.062625170E-1
4.806659754E0,-5.073750019E-2,-8.470000327E-2,8.584125042E-1
4.809193372E0,-5.183750018E-2,-1.443750039E-2,8.009374738E-1
4.811727144E0,-5.609999970E-2,4.413750023E-2,7.286124825E-1
4.814260761E0,-6.462500244E-2,8.139999956E-2,6.391000152E-1
4.816794529E0,-7.521250099E-2,9.624999762E-2,5.476624966E-1
4.819328146E0,-8.263749629E-2,1.016125008E-1,4.603500068E-1
4.821861684E0,-8.689999580E-2,8.772499859E-2,3.795000017E-1
4.824395529E0,-8.689999580E-2,5.582499877E-2,3.071750104E-1
4.826929298E0,-7.741250098E-2,1.223750040E-2,2.454375029E-1
4.829462915E0,-6.352499872E-2,-4.097500071E-2,2.007499933E-1
4.831996488E0,-4.647500068E-2,-1.091749966E-1,1.740749925E-1
4.834530255E0,-2.736249939E-2,-1.655499935E-1,1.538625062E-1
4.837063872E0,5.637499969E-3,-1.740749925E-1,1.315875053E-1
4.839597640E0,4.179999977E-2,-1.783374995E-1,1.197625026E-1
4.842131271E0,6.957499683E-2,-1.985500008E-1,1.251250058E-1
4.844665038E0,8.868750185E-2,-2.113374919E-1,1.527625024E-1
4.847198656E0,1.046374962E-1,-1.974499971E-1,2.209624946E-1
4.849732194E0,1.163249984E-1,-1.495999992E-1,2.741749883E-1
4.852266052E0,1.354375035E-1,-9.212499857E-2,2.741749883E-1
4.854799821E0,1.365374923E-1,-1.443750039E-2,3.826625049E-1
4.857333439E0,1.280124933E-1,6.215000153E-2,3.496625125E-1
4.859866977E0,1.227874979E-1,8.346249908E-2,1.240250021E-1
4.862400741E0,1.185249984E-1,3.024999984E-2,-5.678749830E-2
4.864934358E0,1.077999994E-1,-4.317500070E-2,-5.774999969E-3
4.867468125E0,1.077999994E-1,-7.191249728E-2,1.006499976E-1
4.870001743E0,8.648750186E-2,-2.722499892E-2,1.720124930E-1
4.872535485E0,4.399999976E-2,8.937500417E-3,-1.746249944E-2
4.875069102E0,2.474999987E-3,-3.038750030E-2,-1.398375034E-1
4.877602641E0,-1.457499992E-2,-1.123374999E-1,-6.641250104E-2
4.880136485E0,3.231250122E-2,-2.219250053E-1,-2.026749998E-1
4.882670264E0,8.552499861E-2,-2.953499854E-1,-9.831249714E-2
4.885203881E0,1.067000031E-1,-3.602499962E-1,3.575000167E-2
4.887737649E0,1.185249984E-1,-4.071374834E-1,5.169999972E-2
4.890271189E0,1.131625026E-1,-4.284499884E-1,1.581249982E-1
4.892804793E0,1.311749965E-1,-4.284499884E-1,1.985500008E-1
4.895338562E0,1.663749963E-1,-4.486624897E-1,1.123374999E-1
4.897872179E0,2.195875049E-1,-5.337749720E-1,-5.472499877E-2
4.900405946E0,2.822875082E-1,-6.040375233E-1,-1.856249943E-2
4.902939579E0,3.684999943E-1,-6.422625184E-1,-4.124999978E-4
4.905473346E0,4.345000088E-1,-6.402000189E-1,9.116250277E-2
4.908006963E0,4.728625119E-1,-6.242499948E-1,6.764999777E-2
4.910540731E0,4.834499955E-1,-5.944125056E-1,9.006249905E-2
4.913074338E0,5.026999712E-1,-5.571500063E-1,-4.303750023E-2
4.915608105E0,5.143874884E-1,-5.209875107E-1,-6.421250105E-2
4.918141646E0,5.281375051E-1,-4.857875109E-1,-1.185249984E-1
4.920675259E0,5.388625264E-1,-4.688749909E-1,-2.334749997E-1
4.923209043E0,5.377625227E-1,-4.635125101E-1,-3.207874894E-1
4.925742890E0,5.431249738E-1,-4.965125024E-1,-5.623750091E-1
4.928276430E0,5.516499877E-1,-5.326749682E-1,-6.836500168E-1
4.930810045E0,5.568749905E-1,-5.156250000E-1,-6.921749711E-1
4.933343813E0,5.707625151E-1,-4.868874848E-1,-6.517499685E-1
4.935877430E0,5.792874694E-1,-4.581499994E-1,-6.591749787E-1
4.938411197E0,5.665000081E-1,-4.251500070E-1,-6.910749674E-1
4.940944815E0,5.505499840E-1,-3.719374835E-1,-6.932749748E-1
4.943478567E0,5.366625190E-1,-3.400374949E-1,-7.613375187E-1
4.946012107E0,5.440874696E-1,-3.847250044E-1,-9.847750068E-1
4.948545721E0,5.601750016E-1,-4.496249855E-1,-1.107149959E0
4.951079490E0,5.856124759E-1,-4.826250076E-1,-1.080612540E0
4.953613112E0,6.143500209E-1,-4.805625081E-1,-9.986624718E-1
4.956146880E0,6.282374859E-1,-4.294124842E-1,-8.666625023E-1
4.958680497E0,6.165499687E-1,-3.539249897E-1,-7.752249837E-1
4.961214264E0,5.676000118E-1,-2.921875119E-1,-8.475499749E-1
4.963747911E0,5.281375051E-1,-3.357749879E-1,-1.189100027E0
4.966281678E0,5.112249851E-1,-4.390375018E-1,-1.434949994E0
4.968815295E0,5.249750018E-1,-5.209875107E-1,-1.483899951E0
4.971349062E0,5.644375086E-1,-5.762624741E-1,-1.360424995E0
4.973882660E0,5.930374861E-1,-5.933125019E-1,-1.201887488E0
4.976416198E0,5.867124796E-1,-6.092625260E-1,-1.206149936E0
4.978950043E0,5.388625264E-1,-5.944125056E-1,-1.204087496E0
4.981483583E0,4.706625044E-1,-5.475249887E-1,-1.179612517E0
4.984017384E0,4.164874852E-1,-5.614125133E-1,-1.263625026E0
4.986550925E0,3.823874891E-1,-5.816249847E-1,-1.259362459E0
4.989084692E0,3.462249935E-1,-5.710374713E-1,-1.296625018E0
4.991618309E0,3.185875118E-1,-6.391000152E-1,-1.453099966E0
4.994152042E0,2.876499891E-1,-6.997374892E-1,-1.495587468E0
4.996685660E0,2.440624982E-1,-6.699000001E-1,-1.416937470E0
4.999219427E0,2.153249979E-1,-6.444625258E-1,-1.331687450E0
5.001753044E0,2.056999952E-1,-5.838249922E-1,-1.152937531E0
5.004286822E0,1.695374995E-1,-4.698374867E-1,-1.131624937E0
5.006820362E0,1.185249984E-1,-4.305124879E-1,-1.234887481E0
5.009354206E0,7.796250284E-2,-4.241875112E-1,-1.339249969E0
5.011887824E0,6.311249733E-2,-4.635125101E-1,-1.462587476E0
5.014421601E0,7.906249911E-2,-5.432624817E-1,-1.526525021E0
5.016955141E0,1.057374999E-1,-5.710374713E-1,-1.392462492E0
5.019488755E0,1.014750004E-1,-5.273125172E-1,-1.204087496E0
5.022022524E0,7.163749635E-2,-5.028374791E-1,-1.214674950E0
5.024556136E0,3.121249937E-2,-4.911499918E-1,-1.226362467E0
5.027089904E0,-7.149999961E-3,-4.518249929E-1,-1.260462523E0
5.029623521E0,-4.867500067E-2,-4.284499884E-1,-1.258262515E0
5.032157288E0,-6.888750196E-2,-4.390375018E-1,-1.256199956E0
5.034690829E0,-6.778749824E-2,-4.774000049E-1,-1.292362452E0
5.037224673E0,-6.558749825E-2,-4.868874848E-1,-1.243412495E0
5.039758290E0,-9.336250275E-2,-4.156624973E-1,-1.090237498E0
5.042292058E0,-1.369500011E-1,-3.081375062E-1,-9.602999687E-1
5.044825613E0,-1.890625060E-1,-2.378749996E-1,-1.013512492E0
5.047359226E0,-2.359499931E-1,-2.113374919E-1,-1.119937539E0
5.049892996E0,-2.763749957E-1,-1.889249980E-1,-1.161462545E0
5.052426613E0,-2.997500002E-1,-1.772374958E-1,-1.160362482E0
5.054960356E0,-3.051125109E-1,-1.772374958E-1,-1.139187455E0
