"Time (s)","Acceleration x (m/s^2)","Acceleration y (m/s^2)","Acceleration z (m/s^2)"
3.632888000E-2,-3.549000263E0,8.079000473E0,-3.625050068E0
3.885980200E-2,-3.580050230E0,7.993050575E0,-3.625050068E0
4.139354900E-2,-3.604050159E0,7.987950325E0,-3.637050152E0
4.392406500E-2,-3.576000214E0,7.969050407E0,-3.615000248E0
4.645361200E-2,-3.553950071E0,7.957050323E0,-3.661050081E0
4.903301100E-2,-3.523050070E0,7.950000286E0,-3.723000288E0
5.152832100E-2,-3.573000193E0,7.930950165E0,-3.715950251E0
5.406193400E-2,-3.658950090E0,7.852050304E0,-3.724950075E0
5.659570300E-2,-3.736050129E0,7.813050270E0,-3.742050171E0
5.912937400E-2,-3.781950235E0,7.806000233E0,-3.766050100E0
6.166314300E-2,-3.837000132E0,7.849050522E0,-3.784950256E0
6.419675800E-2,-3.892050266E0,7.971000195E0,-3.775950193E0
6.673029900E-2,-3.886950254E0,8.062050819E0,-3.679950237E0
6.926405900E-2,-3.846000195E0,8.176950455E0,-3.499950171E0
7.179767600E-2,-3.790950298E0,8.304000854E0,-3.402000189E0
7.433152000E-2,-3.669000149E0,8.355000496E0,-3.397050142E0
7.686506100E-2,-3.585000277E0,8.331000328E0,-3.385050058E0
7.939882500E-2,-3.537000179E0,8.376000404E0,-3.409050226E0
8.193244300E-2,-3.517950058E0,8.472000122E0,-3.486000061E0
8.446621000E-2,-3.541950226E0,8.479050636E0,-3.481050253E0
8.699982700E-2,-3.600000143E0,8.541000366E0,-3.430950165E0
8.953359200E-2,-3.625950098E0,8.611050606E0,-3.358950138E0
9.206721000E-2,-3.631050110E0,8.641950607E0,-3.333000183E0
9.460097700E-2,-3.628050089E0,8.620050430E0,-3.333000183E0
9.713459400E-2,-3.633000135E0,8.623050690E0,-3.298950195E0
9.966838800E-2,-3.595050097E0,8.649000168E0,-3.256050110E0
1.022019280E-1,-3.516000271E0,8.653950691E0,-3.328050137E0
1.047357720E-1,-3.475050211E0,8.617950439E0,-3.405000210E0
1.072693900E-1,-3.472950220E0,8.569950104E0,-3.460050106E0
1.098029500E-1,-3.448950052E0,8.485950470E0,-3.496050119E0
1.123367170E-1,-3.487050056E0,8.440950394E0,-3.519000053E0
1.148703350E-1,-3.544950247E0,8.407050133E0,-3.589050055E0
1.174041020E-1,-3.580050230E0,8.290050507E0,-3.594000101E0
1.199377510E-1,-3.553950071E0,8.215950012E0,-3.577050209E0
1.224715190E-1,-3.556050062E0,8.236949921E0,-3.603000164E0
1.250051360E-1,-3.508950233E0,8.167950630E0,-3.598050117E0
1.275389030E-1,-3.504000187E0,8.122050285E0,-3.562950134E0
1.300724920E-1,-3.469950199E0,8.140950203E0,-3.565050125E0
1.326063360E-1,-3.444000244E0,8.211000443E0,-3.519000053E0
1.351399530E-1,-3.469950199E0,8.272950172E0,-3.490950108E0
1.376737210E-1,-3.496950150E0,8.331000328E0,-3.439950228E0
1.402072540E-1,-3.489000082E0,8.356950760E0,-3.474000216E0
1.427408670E-1,-3.496950150E0,8.379000664E0,-3.469050169E0
1.452746370E-1,-3.504000187E0,8.380949974E0,-3.487950087E0
1.478082540E-1,-3.480000257E0,8.331000328E0,-3.498000145E0
1.503420400E-1,-3.492000103E0,8.247000694E0,-3.486000061E0
1.528756580E-1,-3.493950129E0,8.323050499E0,-3.505050182E0
1.554094250E-1,-3.451050282E0,8.338050842E0,-3.498000145E0
1.579430420E-1,-3.432000160E0,8.352000237E0,-3.511950254E0
1.604768280E-1,-3.427050114E0,8.343000412E0,-3.472050190E0
1.630104450E-1,-3.456000090E0,8.326050758E0,-3.498000145E0
1.655442120E-1,-3.517950058E0,8.304000854E0,-3.514950275E0
1.680778300E-1,-3.564000130E0,8.232000351E0,-3.514950275E0
1.706115960E-1,-3.609000206E0,8.194050789E0,-3.567000151E0
1.731452130E-1,-3.640050173E0,8.194050789E0,-3.574950218E0
1.756787520E-1,-3.631050110E0,8.203949928E0,-3.613050222E0
1.782125190E-1,-3.589950085E0,8.164950371E0,-3.639000177E0
1.807461410E-1,-3.481950283E0,8.122050285E0,-3.646050215E0
1.832799090E-1,-3.403050184E0,8.107950211E0,-3.666000128E0
1.858135260E-1,-3.384000063E0,8.070000648E0,-3.615000248E0
1.883472930E-1,-3.351000071E0,8.122050285E0,-3.634050131E0
1.908809060E-1,-3.382050276E0,8.185050011E0,-3.651000261E0
1.934146730E-1,-3.468000174E0,8.199000359E0,-3.606000185E0
1.959482900E-1,-3.505950212E0,8.260950089E0,-3.567000151E0
1.984820570E-1,-3.529950142E0,8.320950508E0,-3.496050119E0
2.010156800E-1,-3.547050238E0,8.299050331E0,-3.505050182E0
2.035494470E-1,-3.525000095E0,8.290050507E0,-3.511950254E0
2.060829870E-1,-3.537000179E0,8.242050171E0,-3.550950050E0
2.086168320E-1,-3.573000193E0,8.248950005E0,-3.547950268E0
2.111503860E-1,-3.595050097E0,8.211000443E0,-3.543000221E0
2.136840020E-1,-3.589950085E0,8.236949921E0,-3.531000137E0
2.162177690E-1,-3.552000284E0,8.256000519E0,-3.523950100E0
2.187513860E-1,-3.504000187E0,8.311050415E0,-3.534000158E0
2.212851240E-1,-3.448950052E0,8.331000328E0,-3.505050182E0
2.238187420E-1,-3.475050211E0,8.328000069E0,-3.469050169E0
2.263525090E-1,-3.484950066E0,8.328000069E0,-3.565050125E0
2.288861260E-1,-3.465000153E0,8.307000160E0,-3.546000242E0
2.314198990E-1,-3.453000069E0,8.331000328E0,-3.526950121E0
2.339535160E-1,-3.493950129E0,8.374050140E0,-3.523950100E0
2.364872830E-1,-3.535050154E0,8.447999954E0,-3.469050169E0
2.390209010E-1,-3.568050146E0,8.464950562E0,-3.376050234E0
2.415546630E-1,-3.592050076E0,8.493000031E0,-3.433050156E0
2.440882800E-1,-3.609000206E0,8.497950554E0,-3.466950178E0
2.466218190E-1,-3.649950266E0,8.449950218E0,-3.481050253E0
2.491555860E-1,-3.655050278E0,8.379000664E0,-3.469050169E0
2.516892030E-1,-3.697950125E0,8.335050583E0,-3.511950254E0
2.542229710E-1,-3.717000246E0,8.282999992E0,-3.507000208E0
2.567568170E-1,-3.762000084E0,8.287050247E0,-3.555000067E0
2.592903570E-1,-3.762000084E0,8.299050331E0,-3.531000137E0
2.618239880E-1,-3.705000162E0,8.302050591E0,-3.535950184E0
2.643577550E-1,-3.685950279E0,8.290050507E0,-3.496050119E0
2.668913720E-1,-3.636000156E0,8.275950432E0,-3.531000137E0
2.694251390E-1,-3.609000206E0,8.271000862E0,-3.514950275E0
2.719587520E-1,-3.577950239E0,8.266050339E0,-3.472050190E0
2.744925190E-1,-3.573000193E0,8.282999992E0,-3.487950087E0
2.770260600E-1,-3.552000284E0,8.275950432E0,-3.478950262E0
2.795596730E-1,-3.576000214E0,8.278050423E0,-3.505050182E0
2.820934230E-1,-3.604050159E0,8.278050423E0,-3.499950171E0
2.846272690E-1,-3.661950111E0,8.188950539E0,-3.519000053E0
2.871608100E-1,-3.673950195E0,8.182050705E0,-3.526950121E0
2.896944250E-1,-3.669000149E0,8.215950012E0,-3.463950157E0
2.922281720E-1,-3.664050102E0,8.206049919E0,-3.496050119E0
2.947617900E-1,-3.624000072E0,8.206049919E0,-3.438000202E0
2.972955570E-1,-3.658950090E0,8.239950180E0,-3.439950228E0
2.998291740E-1,-3.631050110E0,8.251950264E0,-3.433050156E0
3.023629570E-1,-3.625950098E0,8.259000778E0,-3.415950060E0
3.048965740E-1,-3.628050089E0,8.211000443E0,-3.414000273E0
3.074303410E-1,-3.609000206E0,8.254050255E0,-3.414000273E0
3.099638820E-1,-3.612000227E0,8.248950005E0,-3.381000042E0
3.124975090E-1,-3.601950169E0,8.211000443E0,-3.349050045E0
3.150313550E-1,-3.553950071E0,8.239950180E0,-3.370950222E0
3.175651250E-1,-3.520950079E0,8.268000603E0,-3.393000126E0
3.200986650E-1,-3.501000166E0,8.307000160E0,-3.406950235E0
3.226322660E-1,-3.465000153E0,8.326050758E0,-3.385050058E0
3.251660340E-1,-3.516000271E0,8.338050842E0,-3.405000210E0
3.276996510E-1,-3.561000109E0,8.311050415E0,-3.286950111E0
3.302334180E-1,-3.601950169E0,8.331000328E0,-3.292050123E0
3.327670690E-1,-3.568050146E0,8.364000320E0,-3.238950253E0
3.353008360E-1,-3.595050097E0,8.355000496E0,-3.214950085E0
3.378344530E-1,-3.669000149E0,8.410050392E0,-3.298950195E0
3.403682210E-1,-3.700050116E0,8.389950752E0,-3.421050072E0
3.429018570E-1,-3.685950279E0,8.374050140E0,-3.426000118E0
3.454356240E-1,-3.694950104E0,8.311050415E0,-3.400050163E0
3.479692420E-1,-3.691050291E0,8.299050331E0,-3.337050200E0
3.505030090E-1,-3.640050173E0,8.320950508E0,-3.325050116E0
3.530365580E-1,-3.657000065E0,8.328000069E0,-3.334950209E0
3.555701720E-1,-3.691050291E0,8.344950676E0,-3.313050270E0
3.581039410E-1,-3.682950258E0,8.386050224E0,-3.258000135E0
3.606377870E-1,-3.721950293E0,8.376000404E0,-3.294000149E0
3.631713330E-1,-3.754950285E0,8.400000572E0,-3.268050194E0
3.657049480E-1,-3.781950235E0,8.376000404E0,-3.244050264E0
3.682387150E-1,-3.754950285E0,8.355000496E0,-3.282000065E0
3.707723330E-1,-3.706950188E0,8.368950844E0,-3.250950098E0
3.733061050E-1,-3.613950253E0,8.389950752E0,-3.208050251E0
3.758397220E-1,-3.504000187E0,8.386050224E0,-3.253950119E0
3.783734890E-1,-3.384000063E0,8.383049965E0,-3.226950169E0
3.809071070E-1,-3.307050228E0,8.335050583E0,-3.177000046E0
3.834409080E-1,-3.288000107E0,8.368950844E0,-3.124050140E0
3.859744490E-1,-3.267000198E0,8.392950058E0,-3.115050077E0
3.885080620E-1,-3.220950127E0,8.446050644E0,-3.037950039E0
3.910419080E-1,-3.147000074E0,8.485950470E0,-2.983050108E0
3.935754390E-1,-3.157050133E0,8.460000038E0,-2.997000217E0
3.961092060E-1,-3.171000242E0,8.532000542E0,-3.045000076E0
3.986428230E-1,-3.190050125E0,8.569950104E0,-3.048000097E0
4.011765900E-1,-3.267000198E0,8.596050262E0,-3.076050043E0
4.037102080E-1,-3.343050241E0,8.581950188E0,-3.108000040E0
4.062439750E-1,-3.430050135E0,8.512949944E0,-3.142950058E0
4.087775920E-1,-3.547050238E0,8.458050728E0,-3.205950260E0
4.113113600E-1,-3.655050278E0,8.410050392E0,-3.330000162E0
4.138450010E-1,-3.772050142E0,8.374050140E0,-3.400050163E0
4.163787680E-1,-3.873000145E0,8.299050331E0,-3.352050066E0
4.189123090E-1,-3.906000137E0,8.236949921E0,-3.292050123E0
4.214461530E-1,-3.894000292E0,8.175000191E0,-3.250950098E0
4.239796790E-1,-3.925050259E0,8.163000107E0,-3.211050034E0
4.265132950E-1,-3.946950197E0,8.107950211E0,-3.318000078E0
4.290470620E-1,-4.047000408E0,8.091000557E0,-3.514950275E0
4.315806790E-1,-4.083000183E0,8.134050369E0,-3.699000120E0
4.341144470E-1,-4.027950287E0,8.095950127E0,-3.976950169E0
4.366480640E-1,-3.934950113E0,7.888050556E0,-4.233000278E0
4.391818310E-1,-3.825000286E0,7.717050552E0,-4.252050400E0
4.417154490E-1,-3.670950174E0,7.701000214E0,-4.353000164E0
4.442492110E-1,-3.451050282E0,7.696050167E0,-4.306950092E0
4.467828280E-1,-3.334050179E0,7.738950253E0,-4.135050297E0
4.493165960E-1,-3.280950069E0,7.866000175E0,-3.892950296E0
4.518502130E-1,-3.291000128E0,7.954950333E0,-3.754050255E0
4.543839750E-1,-3.310050249E0,8.089050293E0,-3.766050100E0
4.569175930E-1,-3.312000275E0,8.251950264E0,-3.922050238E0
4.594511310E-1,-3.223950148E0,8.367000580E0,-4.164000034E0
4.619848980E-1,-3.043950081E0,8.436000824E0,-4.384050369E0
4.645185060E-1,-2.842950106E0,8.407050133E0,-4.678950310E0
4.670522730E-1,-2.764050245E0,8.374050140E0,-4.699950218E0
4.695858900E-1,-2.764050245E0,8.343000412E0,-4.564050198E0
4.721196580E-1,-2.887950182E0,8.347050667E0,-4.351050377E0
4.746532650E-1,-3.112950087E0,8.431050301E0,-4.044000149E0
4.771870320E-1,-3.336000204E0,8.520000458E0,-3.778050184E0
4.797206500E-1,-3.528000116E0,8.581950188E0,-3.651000261E0
4.822544170E-1,-3.691050291E0,8.698950768E0,-3.637050152E0
4.847880590E-1,-3.856050253E0,8.761950493E0,-3.670050144E0
4.873218260E-1,-3.892050266E0,8.661000252E0,-3.634050131E0
4.898554440E-1,-3.922950268E0,8.545949936E0,-3.531000137E0
4.923889820E-1,-3.997050285E0,8.412000656E0,-3.498000145E0
4.949227440E-1,-4.126950264E0,8.296950340E0,-3.546000242E0
4.974563620E-1,-4.218000412E0,8.350049973E0,-3.682050228E0
4.999902060E-1,-4.354050159E0,8.817000389E0,-3.747000217E0
5.025237470E-1,-4.432950020E0,9.052050591E0,-3.651000261E0
5.050574900E-1,-4.427999973E0,8.848050117E0,-3.535950184E0
5.075911070E-1,-4.186050415E0,8.644050598E0,-3.618000269E0
5.101248740E-1,-4.218000412E0,8.304000854E0,-3.582000256E0
5.126584920E-1,-4.579050064E0,7.930950165E0,-3.675000191E0
5.151922680E-1,-4.902000427E0,7.765050411E0,-3.898050070E0
5.177258850E-1,-5.199000359E0,7.531050205E0,-4.201950073E0
5.202596530E-1,-5.419950485E0,7.284000397E0,-4.348050117E0
5.227931930E-1,-5.500950336E0,7.176000118E0,-4.377000332E0
5.253270520E-1,-5.568000317E0,7.219050407E0,-4.195050240E0
5.278605930E-1,-5.458050251E0,7.264950275E0,-3.939000130E0
5.303944370E-1,-5.238000393E0,7.461000443E0,-3.690000057E0
5.329279770E-1,-4.984050274E0,7.696050167E0,-3.519000053E0
5.354616020E-1,-4.825950146E0,7.785000324E0,-3.474000216E0
5.379953690E-1,-4.576950073E0,7.854000568E0,-3.405000210E0
5.405289860E-1,-4.150050163E0,8.065050125E0,-3.472050190E0
5.430627540E-1,-2.919000149E0,8.938950539E0,-3.634050131E0
5.455963470E-1,-2.578950167E0,9.234000206E0,-3.462000132E0
5.481301140E-1,-2.898000240E0,8.817000389E0,-3.598050117E0
5.506637320E-1,-3.006000042E0,8.674950600E0,-3.976950169E0
5.531974990E-1,-3.300000191E0,8.941050529E0,-3.864000082E0
5.557311450E-1,-3.625950098E0,9.094950676E0,-3.639000177E0
5.582649120E-1,-3.772050142E0,9.034950256E0,-3.697050095E0
5.607985300E-1,-4.240950108E0,8.710950851E0,-3.694050074E0
5.633322970E-1,-4.701000214E0,8.320950508E0,-3.201000214E0
5.658658380E-1,-4.680000305E0,8.065050125E0,-2.923050165E0
5.683994510E-1,-4.888050079E0,7.878000259E0,-3.445050240E0
5.709332200E-1,-4.933950424E0,8.074049950E0,-4.093950272E0
5.734670660E-1,-4.681950092E0,8.188950539E0,-4.152000427E0
5.760005830E-1,-4.882950306E0,8.026050568E0,-3.606000185E0
5.785341980E-1,-4.740000248E0,7.926000595E0,-3.462000132E0
5.810679650E-1,-4.495050430E0,7.935000420E0,-3.534000158E0
5.836015830E-1,-4.408950329E0,7.866000175E0,-3.637050152E0
5.861353590E-1,-4.297049999E0,7.786950588E0,-3.606000185E0
5.886689760E-1,-4.210050106E0,7.726950169E0,-3.606000185E0
5.912027440E-1,-4.252950191E0,7.737000465E0,-3.622050285E0
5.937363610E-1,-4.252950191E0,7.674000263E0,-3.637050152E0
5.962701480E-1,-4.297049999E0,7.684050560E0,-3.808950186E0
5.988036890E-1,-4.380000114E0,7.677000523E0,-3.951000214E0
6.013375330E-1,-4.390050411E0,7.690950394E0,-3.840000153E0
6.038711500E-1,-4.303950310E0,7.690950394E0,-3.639000177E0
6.064046940E-1,-4.126950264E0,7.629000187E0,-3.547950268E0
6.089384610E-1,-4.129050255E0,7.593000412E0,-3.466950178E0
6.114720780E-1,-4.081050396E0,7.504050255E0,-3.534000158E0
6.140058460E-1,-3.976050138E0,7.489950180E0,-3.613050222E0
6.165394670E-1,-4.021049976E0,7.582950592E0,-3.510000229E0
6.190732340E-1,-3.978000164E0,7.605000496E0,-3.438000202E0
6.216068520E-1,-3.943950176E0,7.645950317E0,-3.361050129E0
6.241406190E-1,-3.886950254E0,7.678950310E0,-3.397050142E0
6.266742320E-1,-3.814950228E0,7.696050167E0,-3.439950228E0
6.292077710E-1,-3.750000238E0,7.753050327E0,-3.457050085E0
6.317416150E-1,-3.691050291E0,7.741050243E0,-3.502950191E0
6.342753840E-1,-3.657000065E0,7.768050194E0,-3.433050156E0
6.368090110E-1,-3.652050257E0,7.696050167E0,-3.484050274E0
6.393427780E-1,-3.757950068E0,7.720050335E0,-3.463950157E0
6.418763180E-1,-3.745950222E0,7.801050186E0,-3.430950165E0
6.444099320E-1,-3.757950068E0,7.819950581E0,-3.358950138E0
6.469436870E-1,-3.858000278E0,7.762950420E0,-3.409050226E0
6.494773040E-1,-3.937050104E0,7.758000374E0,-3.426000118E0
6.520110720E-1,-4.033050060E0,7.686000347E0,-3.487950087E0
6.545446890E-1,-4.117050171E0,7.618950367E0,-3.505050182E0
6.570784700E-1,-4.174050331E0,7.533000469E0,-3.630000114E0
6.596120880E-1,-4.227000237E0,7.461000443E0,-3.643950224E0
6.621458550E-1,-4.159950256E0,7.380000114E0,-3.586950064E0
6.646794720E-1,-4.135950089E0,7.369950294E0,-3.649050236E0
6.672132630E-1,-4.098000050E0,7.368000507E0,-3.721050262E0
6.697468810E-1,-4.085999966E0,7.389000416E0,-3.904950142E0
6.722804190E-1,-4.085999966E0,7.444050312E0,-4.057950020E0
6.748141870E-1,-4.102950096E0,7.380000114E0,-3.900000095E0
6.773480330E-1,-4.014000416E0,7.348950386E0,-3.685050249E0
6.798815730E-1,-3.994950294E0,7.416000366E0,-3.642000198E0
6.824151890E-1,-4.035000324E0,7.471050262E0,-3.543000221E0
6.849489560E-1,-4.038000107E0,7.522950172E0,-3.555000067E0
6.874825630E-1,-4.111950397E0,7.621950150E0,-3.571950197E0
6.900163300E-1,-4.078950405E0,7.744050503E0,-3.613050222E0
6.925499480E-1,-4.090950012E0,7.873050213E0,-3.615000248E0
6.950837150E-1,-4.174050331E0,7.975950241E0,-3.631950140E0
6.976173080E-1,-4.194000244E0,8.046000481E0,-3.567000151E0
7.001510760E-1,-4.042950153E0,8.095950127E0,-3.490950108E0
7.026846930E-1,-3.952050209E0,8.146050453E0,-3.622050285E0
7.052182320E-1,-3.853050232E0,8.104949951E0,-3.699000120E0
7.077520860E-1,-3.762000084E0,8.047950745E0,-3.663000107E0
7.102856260E-1,-3.693000078E0,8.067000389E0,-3.567000151E0
7.128194700E-1,-3.705000162E0,7.978950500E0,-3.498000145E0
7.153530110E-1,-3.856050253E0,8.175000191E0,-3.370950222E0
7.178867540E-1,-3.718950272E0,8.268000603E0,-3.342000246E0
7.204203710E-1,-3.190050125E0,8.362050056E0,-3.193950176E0
7.229541390E-1,-2.902950048E0,8.278050423E0,-4.648050308E0
7.254877560E-1,-3.448950052E0,8.187000275E0,-4.686000347E0
7.280215470E-1,-4.546050072E0,8.398050308E0,-3.634050131E0
7.305551650E-1,-4.993050098E0,8.437950134E0,-3.555000067E0
7.330889320E-1,-4.207950115E0,8.146050453E0,-4.357950211E0
7.356225490E-1,-3.658950090E0,7.837050438E0,-4.602000237E0
7.381563460E-1,-3.781950235E0,7.648050308E0,-4.225950241E0
7.406899630E-1,-4.093050003E0,7.507050514E0,-4.075050354E0
7.432237300E-1,-4.467000008E0,7.489950180E0,-4.116000175E0
7.457572710E-1,-4.703999996E0,7.638000488E0,-4.153950214E0
7.482908160E-1,-4.680000305E0,7.852050304E0,-4.012950420E0
7.508245850E-1,-4.564949989E0,7.987950325E0,-3.864000082E0
7.533582030E-1,-4.431000233E0,8.071949959E0,-3.763950109E0
7.558919700E-1,-4.288949966E0,8.098050117E0,-3.724950075E0
7.584255730E-1,-4.087950230E0,8.017050743E0,-3.711000204E0
7.609593410E-1,-3.928050280E0,7.950000286E0,-3.603000164E0
7.634929580E-1,-3.789000273E0,7.897050381E0,-3.507000208E0
7.660267250E-1,-3.813000202E0,7.876050472E0,-3.498000145E0
7.685603330E-1,-3.901050091E0,7.947000504E0,-3.498000145E0
7.710941000E-1,-3.973050117E0,7.987950325E0,-3.543000221E0
7.736277170E-1,-4.078950405E0,7.974000454E0,-3.591000080E0
7.761614840E-1,-4.135950089E0,7.957050323E0,-3.555000067E0
7.786950250E-1,-4.147950172E0,7.918950558E0,-3.558000088E0
7.812286380E-1,-4.150050163E0,7.810950279E0,-3.466950178E0
7.837624070E-1,-4.213050365E0,7.717050552E0,-3.412050247E0
7.862962540E-1,-4.246050358E0,7.665000439E0,-3.381000042E0
7.888297940E-1,-4.311000347E0,7.617000580E0,-3.370950222E0
7.913634100E-1,-4.282050133E0,7.603050232E0,-3.418950081E0
7.938971770E-1,-4.246050358E0,7.546950340E0,-3.522000074E0
7.964307940E-1,-4.251000404E0,7.533000469E0,-3.598050117E0
7.989645420E-1,-4.246050358E0,7.531050205E0,-3.607950211E0
8.014981600E-1,-4.251000404E0,7.567050457E0,-3.558000088E0
8.040319270E-1,-4.309050083E0,7.618950367E0,-3.486000061E0
8.065655440E-1,-4.363950253E0,7.570950508E0,-3.430950165E0
8.090993310E-1,-4.359000206E0,7.543050289E0,-3.373050213E0
8.116329480E-1,-4.435050011E0,7.437000275E0,-3.442950249E0
8.141664860E-1,-4.552950382E0,7.465950489E0,-3.570000172E0
8.167003310E-1,-4.612950325E0,7.540050507E0,-3.673050165E0
8.192340950E-1,-4.558050156E0,7.546950340E0,-3.610050201E0
8.217676350E-1,-4.558050156E0,7.606950283E0,-3.475950241E0
8.243012510E-1,-4.663050175E0,7.678950310E0,-3.400050163E0
8.268350180E-1,-4.703999996E0,7.677000523E0,-3.400050163E0
8.293686400E-1,-4.689000130E0,7.696050167E0,-3.333000183E0
8.319024080E-1,-4.675050259E0,7.684050560E0,-3.289950132E0
8.344360250E-1,-4.725000381E0,7.593000412E0,-3.234000206E0
8.369697920E-1,-4.717950344E0,7.600050449E0,-3.306000233E0
8.395034240E-1,-4.668000221E0,7.650000572E0,-3.484050274E0
8.420371910E-1,-4.713000298E0,7.561950207E0,-3.409050226E0
8.445707310E-1,-4.692000389E0,7.549950123E0,-3.393000126E0
8.471045750E-1,-4.681950092E0,7.543050289E0,-3.426000118E0
8.496381890E-1,-4.620000362E0,7.522950172E0,-3.397050142E0
8.521719560E-1,-4.705950260E0,7.483050346E0,-3.265950203E0
8.547054970E-1,-4.621950150E0,7.497000217E0,-3.415950060E0
8.572391100E-1,-4.621950150E0,7.540050507E0,-3.550950050E0
8.597729600E-1,-4.594050407E0,7.480050564E0,-3.438000202E0
8.623065010E-1,-4.560000420E0,7.525950432E0,-3.463950157E0
8.648402680E-1,-4.591050148E0,7.534950256E0,-3.451950073E0
8.673738850E-1,-4.608000278E0,7.449000359E0,-3.463950157E0
8.699076480E-1,-4.629000187E0,7.381950378E0,-3.427950144E0
8.724412660E-1,-4.573950291E0,7.351050377E0,-3.450000048E0
8.749750330E-1,-4.689000130E0,7.389000416E0,-3.382950068E0
8.775086500E-1,-4.804050446E0,7.333950520E0,-3.294000149E0
8.800424420E-1,-4.888050079E0,7.309950352E0,-3.301950216E0
8.825760590E-1,-4.857000351E0,7.377000332E0,-3.373050213E0
8.851098260E-1,-4.902000427E0,7.413000584E0,-3.390000105E0
8.876433670E-1,-4.849950314E0,7.546950340E0,-3.412050247E0
8.901771960E-1,-4.819050312E0,7.642950535E0,-3.321000099E0
8.927107360E-1,-4.807050228E0,7.729050159E0,-3.172050238E0
8.952445810E-1,-4.897950172E0,7.768050194E0,-2.983050108E0
8.977781210E-1,-4.902000427E0,7.785000324E0,-3.049950123E0
9.003117170E-1,-4.881000042E0,7.852050304E0,-3.154950142E0
9.028454850E-1,-4.929000378E0,7.843950272E0,-3.145950079E0
9.053791020E-1,-4.894950390E0,7.782000542E0,-3.100050211E0
9.079128690E-1,-4.840050220E0,7.669950485E0,-3.222000122E0
9.104465400E-1,-4.732050419E0,7.605000496E0,-3.306000233E0
9.129803070E-1,-4.675050259E0,7.591050148E0,-3.376050234E0
9.155139240E-1,-4.636950016E0,7.569000244E0,-3.406950235E0
9.180476920E-1,-4.552950382E0,7.513950348E0,-3.469050169E0
9.205813090E-1,-4.471050262E0,7.476000309E0,-3.523950100E0
9.231150760E-1,-4.462050438E0,7.353000164E0,-3.541050196E0
9.256486940E-1,-3.798000097E0,7.066050529E0,-3.888000250E0
9.281824610E-1,-2.857050180E0,7.108950138E0,-3.904950142E0
9.307160150E-1,-2.851950169E0,7.270050526E0,-3.450000048E0
9.332496290E-1,-2.757000208E0,7.461000443E0,-3.133950233E0
9.357833980E-1,-2.539050102E0,7.585950375E0,-3.055050135E0
9.383170150E-1,-2.710950136E0,7.753050327E0,-3.154950142E0
9.408507830E-1,-3.027000189E0,7.879950523E0,-3.268050194E0
9.433844000E-1,-3.307050228E0,7.878000259E0,-3.321000099E0
9.459181670E-1,-3.640050173E0,7.818000317E0,-3.342000246E0
9.484517850E-1,-3.892050266E0,7.573950291E0,-3.409050226E0
9.509855420E-1,-4.123950005E0,7.341000557E0,-3.460050106E0
9.535191590E-1,-4.390050411E0,7.111950397E0,-3.642000198E0
9.560529260E-1,-4.570050240E0,6.988950253E0,-3.766050100E0
9.585865440E-1,-4.603050232E0,6.997050285E0,-3.763950109E0
9.611201060E-1,-4.921950340E0,6.906000137E0,-3.658050060E0
9.636538740E-1,-5.179950237E0,6.757050514E0,-3.694050074E0
9.661874910E-1,-5.334000111E0,6.688050270E0,-3.646050215E0
9.687212580E-1,-5.094000340E0,6.891000271E0,-3.601050138E0
9.712550750E-1,-4.677000046E0,6.951000214E0,-3.772950172E0
9.737886160E-1,-4.380000114E0,7.138050556E0,-3.613050222E0
9.763222310E-1,-4.135950089E0,7.453950405E0,-3.522000074E0
9.788559980E-1,-3.982950211E0,7.537950516E0,-3.373050213E0
9.813895970E-1,-4.157999992E0,7.564050198E0,-3.189000130E0
9.839233640E-1,-4.380000114E0,7.588050365E0,-3.085950136E0
9.864569810E-1,-4.864050388E0,7.666950226E0,-3.112050056E0
9.889907490E-1,-5.158950329E0,7.653000355E0,-3.157950163E0
9.915243470E-1,-5.326050282E0,7.686000347E0,-3.390000105E0
9.940581140E-1,-5.512950420E0,7.597950459E0,-3.553050280E0
9.965916550E-1,-5.676000118E0,7.447050571E0,-3.498000145E0
9.991254990E-1,-5.647050381E0,7.357950211E0,-3.400050163E0
1.001659097E0,-5.542050362E0,7.276950359E0,-3.345000267E0
1.004192865E0,-5.440950394E0,7.285950184E0,-3.436050177E0
1.006726405E0,-5.319000244E0,7.224000454E0,-3.481050253E0
1.009260018E0,-5.283000469E0,7.176000118E0,-3.402000189E0
1.011793802E0,-5.170950413E0,7.132950306E0,-3.289950132E0
1.014327419E0,-5.179950237E0,7.162050247E0,-3.088050127E0
1.016861186E0,-4.972050190E0,7.545000553E0,-3.261000156E0
1.019394804E0,-4.378050327E0,7.830000401E0,-3.847950220E0
1.021928576E0,-4.633950233E0,7.804050446E0,-4.221000195E0
1.024462193E0,-4.394999981E0,7.792050362E0,-4.045950413E0
1.026995732E0,-4.311000347E0,7.693950176E0,-3.603000164E0
1.029529576E0,-4.354050159E0,7.677000523E0,-3.385050058E0
1.032063330E0,-4.300950050E0,7.642950535E0,-3.333000183E0
1.034596948E0,-4.402050018E0,7.581000328E0,-3.361050129E0
1.037130486E0,-4.348950386E0,7.605000496E0,-3.436050177E0
1.039664253E0,-4.426050186E0,7.567050457E0,-3.498000145E0
1.042197829E0,-4.561950207E0,7.549950123E0,-3.438000202E0
1.044731545E0,-4.419000149E0,7.549950123E0,-3.484050274E0
1.047265246E0,-4.066950321E0,7.681950569E0,-3.646050215E0
1.049798981E0,-4.276950359E0,7.725000381E0,-3.457050085E0
1.052332598E0,-4.384950161E0,7.696050167E0,-3.318000078E0
1.054866365E0,-4.255949974E0,7.672050476E0,-3.510000229E0
1.057399983E0,-4.447050095E0,7.621950150E0,-3.577050209E0
1.059933740E0,-4.680000305E0,7.642950535E0,-3.543000221E0
1.062467357E0,-4.902000427E0,7.657950401E0,-3.526950121E0
1.065001124E0,-4.771050453E0,7.504050255E0,-3.733050108E0
1.067534742E0,-4.432950020E0,7.279050350E0,-4.048950195E0
1.070068295E0,-4.912050247E0,7.248000145E0,-3.828000069E0
1.072602062E0,-4.881000042E0,7.248000145E0,-3.730050087E0
1.075135680E0,-4.978950024E0,7.306050301E0,-3.835950136E0
1.077669524E0,-5.158950329E0,7.363050461E0,-3.469050169E0
1.080203069E0,-4.858950138E0,7.312950134E0,-3.522000074E0
1.082736837E0,-4.891050339E0,7.248000145E0,-3.631950140E0
1.085270454E0,-5.098950386E0,7.408950329E0,-3.370950222E0
1.087804221E0,-5.197050095E0,7.489950180E0,-3.390000105E0
1.090337834E0,-5.166000366E0,7.621950150E0,-3.313050270E0
1.092871601E0,-5.131950378E0,7.653000355E0,-3.205950260E0
1.095405218E0,-5.319000244E0,7.690950394E0,-3.273000240E0
1.097938986E0,-5.238000393E0,7.738950253E0,-3.301950216E0
1.100472608E0,-4.881000042E0,7.617000580E0,-3.345000267E0
1.103006375E0,-4.924050331E0,7.597950459E0,-3.342000246E0
1.105539993E0,-4.936050415E0,7.701000214E0,-3.286950111E0
1.108073760E0,-4.960050106E0,7.785000324E0,-3.127050161E0
1.110607377E0,-4.974000454E0,7.780050278E0,-2.977950096E0
1.113141144E0,-5.094000340E0,7.762950420E0,-2.988000154E0
1.115674685E0,-4.984050274E0,7.801050186E0,-3.166950226E0
1.118208298E0,-5.094000340E0,7.888050556E0,-3.097950220E0
1.120742068E0,-5.203950405E0,7.852050304E0,-3.012000084E0
1.123275914E0,-5.166000366E0,7.842000484E0,-3.178950071E0
1.125809454E0,-5.167950153E0,7.686000347E0,-3.390000105E0
1.128343070E0,-5.191950321E0,7.614000320E0,-3.439950228E0
1.130876813E0,-5.134950161E0,7.660050392E0,-3.421050072E0
1.133410430E0,-5.107950211E0,7.710000515E0,-3.234000206E0
1.135944197E0,-5.065050125E0,7.689000130E0,-3.177000046E0
1.138477815E0,-4.966950417E0,7.734000206E0,-3.199050188E0
1.141011601E0,-4.809000015E0,7.813050270E0,-3.121950150E0
1.143545218E0,-4.717950344E0,7.897050381E0,-3.048000097E0
1.146078986E0,-4.713000298E0,7.957050323E0,-3.091050148E0
1.148612526E0,-4.809000015E0,8.005050659E0,-3.067050219E0
1.151146153E0,-4.885950089E0,8.017050743E0,-2.893950224E0
1.153679999E0,-4.897950172E0,7.894950390E0,-2.572950125E0
1.156213539E0,-4.716000080E0,7.500000477E0,-2.097000122E0
1.158747383E0,-4.443000317E0,6.940950394E0,-2.017950058E0
1.161280929E0,-4.384950161E0,6.823950291E0,-2.830050230E0
1.163814696E0,-4.924050331E0,7.120950222E0,-3.723000288E0
1.166348313E0,-5.548950195E0,7.567050457E0,-4.015050411E0
1.168882081E0,-5.872050285E0,7.867950439E0,-3.979050159E0
1.171415703E0,-5.925000191E0,8.026050568E0,-3.781050205E0
1.173949470E0,-5.920050144E0,8.143950462E0,-3.214950085E0
1.176483088E0,-5.892000198E0,8.170050621E0,-2.596950054E0
1.179016855E0,-5.923050404E0,8.034000397E0,-2.323950052E0
1.181550467E0,-6.186000347E0,7.399050236E0,-2.514000177E0
1.184084006E0,-6.097950459E0,7.060950279E0,-3.081000090E0
1.186617850E0,-5.520000458E0,7.131000519E0,-3.856950283E0
1.189151619E0,-5.235000134E0,6.918000221E0,-4.393949986E0
1.191685170E0,-5.122950077E0,6.553050518E0,-4.389000416E0
1.194218785E0,-5.044050217E0,6.775950432E0,-4.084949970E0
1.196752552E0,-4.450050354E0,7.183050156E0,-4.231050014E0
1.199286170E0,-4.431000233E0,7.140000343E0,-3.555000067E0
1.201819946E0,-4.822950363E0,7.272000313E0,-2.800950050E0
1.204353563E0,-4.736999989E0,7.300950527E0,-2.691000223E0
1.206887331E0,-4.609950066E0,7.408950329E0,-2.868000031E0
1.209420948E0,-5.001000404E0,7.576050282E0,-2.710050106E0
1.211954749E0,-5.992050171E0,7.555050373E0,-2.305050135E0
1.214488290E0,-6.759000301E0,7.473000526E0,-2.317050219E0
1.217022134E0,-7.144050121E0,7.423050404E0,-3.073950052E0
1.219555751E0,-6.244050503E0,7.489950180E0,-4.207050323E0
1.222089532E0,-6.121950150E0,7.425000191E0,-4.066050053E0
1.224623073E0,-5.905950069E0,7.477950573E0,-3.637050152E0
1.227156686E0,-5.671050072E0,7.489950180E0,-3.448050261E0
1.229690456E0,-5.701950073E0,7.582950592E0,-3.406950235E0
1.232224049E0,-5.137050152E0,7.726950169E0,-3.772950172E0
1.234757893E0,-4.576950073E0,7.981050491E0,-4.231050014E0
1.237291434E0,-4.210050106E0,7.939950466E0,-4.317000389E0
1.239825201E0,-4.368000031E0,7.969050407E0,-3.843000174E0
1.242358813E0,-4.570050240E0,7.959000587E0,-3.510000229E0
1.244892580E0,-4.629000187E0,7.971000195E0,-3.376050234E0
1.247426198E0,-4.816050053E0,8.026050568E0,-3.277950048E0
1.249959965E0,-5.017050266E0,8.019000053E0,-3.208050251E0
1.252493568E0,-5.077050209E0,7.897050381E0,-3.246000051E0
1.255027336E0,-5.044050217E0,7.840050220E0,-3.546000242E0
1.257560953E0,-4.788000107E0,7.734000206E0,-3.748950243E0
1.260094492E0,-4.720050335E0,7.642950535E0,-3.697050095E0
1.262628235E0,-4.582050323E0,7.636050224E0,-3.562950134E0
1.265162081E0,-4.456950188E0,7.593000412E0,-3.369000196E0
1.267695698E0,-4.488000393E0,7.600050449E0,-3.130950212E0
1.270229237E0,-4.474050045E0,7.657950401E0,-2.932950258E0
1.272763010E0,-4.384950161E0,7.807950497E0,-2.823000193E0
1.275296627E0,-4.456950188E0,7.927950382E0,-2.752950191E0
1.277830395E0,-4.219950199E0,7.927950382E0,-2.905950069E0
1.280364012E0,-4.042950153E0,7.861050606E0,-3.163050175E0
1.282897793E0,-3.955950260E0,7.801050186E0,-3.318000078E0
1.285431411E0,-3.796050072E0,7.786950588E0,-3.189000130E0
1.287965178E0,-3.382050276E0,7.681950569E0,-3.141000032E0
1.290498795E0,-3.250050068E0,7.633950233E0,-2.956950188E0
1.293032563E0,-3.184950113E0,7.567050457E0,-2.752950191E0
1.295566180E0,-3.298050165E0,7.629000187E0,-2.719950199E0
1.298099947E0,-3.391050100E0,7.665000439E0,-2.764950037E0
1.300633565E0,-3.537000179E0,7.750950336E0,-2.812950134E0
1.303167098E0,-3.721950293E0,7.753050327E0,-2.956950188E0
1.305700865E0,-3.886950254E0,7.794000149E0,-3.118950129E0
1.308234483E0,-3.970950127E0,7.818000317E0,-3.246000051E0
1.310768327E0,-4.051949978E0,7.633950233E0,-3.289950132E0
1.313301853E0,-4.117050171E0,7.456050396E0,-3.330000162E0
1.315835621E0,-4.074000359E0,7.222050190E0,-3.325050116E0
1.318369238E0,-3.961050272E0,6.982050419E0,-3.486000061E0
1.320903005E0,-3.952050209E0,6.910050392E0,-3.613050222E0
1.323436618E0,-3.982950211E0,6.973050117E0,-3.775950193E0
1.325970385E0,-4.050000191E0,7.095000267E0,-3.856950283E0
1.328504002E0,-4.118999958E0,7.329000473E0,-3.862050295E0
1.331037769E0,-4.516950130E0,7.501950264E0,-3.867000103E0
1.333571401E0,-4.765950203E0,7.387050152E0,-3.819000244E0
1.336104939E0,-4.954950333E0,7.222050190E0,-3.792000294E0
1.338638783E0,-5.338050365E0,7.087950230E0,-3.862050295E0
1.341172553E0,-5.665950298E0,6.838950157E0,-3.984000206E0
1.343706088E0,-5.796000481E0,6.679950237E0,-4.008000374E0
1.346239932E0,-5.743050098E0,6.997050285E0,-4.000950336E0
1.348773473E0,-5.635050297E0,7.614000320E0,-4.078050137E0
1.351307088E0,-5.524950027E0,8.034000397E0,-4.042050362E0
1.353840841E0,-5.350050449E0,8.134050369E0,-3.927000284E0
1.356374459E0,-5.154000282E0,8.023950577E0,-3.595950127E0
1.358908226E0,-4.977000237E0,7.923000336E0,-3.238950253E0
1.361441843E0,-4.834950447E0,7.866000175E0,-2.893950224E0
1.363975611E0,-4.696950436E0,7.818000317E0,-2.664000034E0
1.366509228E0,-4.567049980E0,7.794000149E0,-2.692950010E0
1.369042995E0,-4.549950123E0,7.818000317E0,-2.863050222E0
1.371576613E0,-4.549950123E0,7.933050156E0,-3.049950123E0
1.374110370E0,-4.528950214E0,7.998000145E0,-3.229950190E0
1.376643987E0,-4.540950298E0,8.031000137E0,-3.289950132E0
1.379177755E0,-4.495050430E0,7.993050575E0,-3.244050264E0
1.381711295E0,-4.404000282E0,7.942950249E0,-3.133950233E0
1.384244898E0,-4.335000038E0,7.876050472E0,-3.061950207E0
1.386778745E0,-4.323000431E0,7.885050297E0,-3.019050121E0
1.389312285E0,-4.408950329E0,7.914000511E0,-3.069000244E0
1.391846129E0,-4.540950298E0,7.963950157E0,-3.133950233E0
1.394379685E0,-4.636950016E0,8.019000053E0,-3.261000156E0
1.396913452E0,-4.701000214E0,8.002050400E0,-3.366000175E0
1.399447069E0,-4.789950371E0,8.050050735E0,-3.430950165E0
1.401980836E0,-4.893000126E0,8.059950829E0,-3.474000216E0
1.404514444E0,-4.867050171E0,8.006999969E0,-3.496050119E0
1.407048211E0,-4.801950455E0,7.915950298E0,-3.613050222E0
1.409581829E0,-4.759050369E0,7.782000542E0,-3.673050165E0
1.412115596E0,-4.703999996E0,7.708050251E0,-3.690000057E0
1.414649136E0,-4.651050091E0,7.609950542E0,-3.700950146E0
1.417182750E0,-4.572000027E0,7.630950451E0,-3.742050171E0
1.419716596E0,-4.452000141E0,7.662000179E0,-3.736950159E0
1.422250365E0,-4.336950302E0,7.714950562E0,-3.735000134E0
1.424783997E0,-4.251000404E0,7.843950272E0,-3.667950153E0
1.427317536E0,-4.237050056E0,7.983000278E0,-3.658050060E0
1.429851303E0,-4.219950199E0,8.071949959E0,-3.646050215E0
1.432384920E0,-4.318050385E0,8.077050209E0,-3.678000212E0
1.434918683E0,-4.456950188E0,8.115000725E0,-3.711000204E0
1.437452300E0,-4.522050381E0,8.275950432E0,-3.723000288E0
1.439986067E0,-4.419000149E0,8.376000404E0,-3.772950172E0
1.442519685E0,-4.423050404E0,8.383049965E0,-3.739950180E0
1.445053433E0,-4.408950329E0,8.356950760E0,-3.699000120E0
1.447586973E0,-4.249050140E0,8.449950218E0,-3.787950277E0
1.450120818E0,-4.273050308E0,8.485950470E0,-3.784950256E0
1.452654435E0,-4.402050018E0,8.412000656E0,-3.697050095E0
1.455188226E0,-4.339950085E0,8.343000412E0,-3.723000288E0
1.457721844E0,-4.267950058E0,8.275950432E0,-3.832950115E0
1.460255382E0,-4.218000412E0,8.242050171E0,-3.922050238E0
1.462789149E0,-4.270050049E0,8.058000565E0,-3.976950169E0
1.465322747E0,-4.656000137E0,7.837050438E0,-3.988950253E0
1.467856514E0,-5.020050049E0,7.624050140E0,-3.802050114E0
1.470390360E0,-5.034000397E0,7.464000225E0,-3.891000271E0
1.472923901E0,-4.684950352E0,7.557000160E0,-4.243050098E0
1.475457531E0,-3.988050222E0,7.404000282E0,-4.369950294E0
1.477991298E0,-3.355050087E0,7.068000317E0,-4.339050293E0
1.480524916E0,-2.440050125E0,7.012950420E0,-4.506000042E0
1.483058683E0,-2.230050087E0,7.204950333E0,-4.726950169E0
1.485592290E0,-2.686950207E0,7.411050320E0,-4.639950275E0
1.488126057E0,-3.339000225E0,7.698000431E0,-4.461000443E0
1.490659675E0,-4.344000340E0,8.031000137E0,-4.228050232E0
1.493193213E0,-4.819050312E0,8.335050583E0,-4.168950081E0
1.495726967E0,-4.891050339E0,8.410050392E0,-4.327050209E0
1.498260813E0,-5.278950214E0,8.689949989E0,-4.072950363E0
1.500794353E0,-6.250950336E0,9.037050247E0,-3.153000116E0
1.503328197E0,-8.176050186E0,7.969050407E0,-2.056050062E0
1.505861805E0,-7.812000275E0,7.216950417E0,-3.214950085E0
1.508395343E0,-5.142000198E0,6.625050545E0,-5.505000114E0
1.510929110E0,-3.420000076E0,6.412050247E0,-5.922000408E0
1.513462728E0,-2.874000072E0,6.630000114E0,-4.968000412E0
1.515996495E0,-2.878950119E0,7.066050529E0,-4.233000278E0
1.518530112E0,-3.204000235E0,7.528050423E0,-3.823950291E0
1.521063880E0,-3.433950186E0,7.854000568E0,-3.663000107E0
1.523597497E0,-3.576000214E0,8.220000267E0,-3.558000088E0
1.526131269E0,-3.765000105E0,8.524950027E0,-3.498000145E0
1.528664887E0,-3.739050150E0,8.613000870E0,-3.589050055E0
1.531198425E0,-3.669000149E0,8.644050598E0,-3.706050158E0
1.533732269E0,-3.561000109E0,8.505000114E0,-3.730050087E0
1.536266029E0,-3.424950123E0,8.292000771E0,-3.718050241E0
1.538799646E0,-3.351000071E0,8.055000305E0,-3.651000261E0
1.541333184E0,-3.339000225E0,7.914000511E0,-3.607950211E0
1.543866952E0,-3.379050255E0,7.846950531E0,-3.631950140E0
1.546400578E0,-3.477000237E0,7.897050381E0,-3.666000128E0
1.548934345E0,-3.484950066E0,7.930950165E0,-3.804000139E0
1.551468191E0,-3.439050198E0,7.954950333E0,-3.924000263E0
1.554001732E0,-3.298050165E0,8.014050484E0,-4.036950111E0
1.556535357E0,-3.082050085E0,8.077050209E0,-4.111050129E0
1.559069125E0,-2.971950054E0,8.173049927E0,-4.033950329E0
1.561602742E0,-2.854950190E0,8.212950706E0,-3.903000116E0
1.564136509E0,-2.725050211E0,8.191950798E0,-3.892950296E0
1.566670127E0,-2.650950193E0,8.203949928E0,-3.831000090E0
1.569203894E0,-2.656050205E0,8.170050621E0,-3.802050114E0
1.571737511E0,-2.697000027E0,8.137050629E0,-3.835950136E0
1.574271278E0,-2.778000116E0,8.070000648E0,-3.823950291E0
1.576804833E0,-2.890950203E0,8.055000305E0,-3.876000166E0
1.579338677E0,-2.929050207E0,8.065050125E0,-3.924000263E0
1.581872294E0,-3.070050240E0,8.014050484E0,-3.928950071E0
1.584406062E0,-3.228000164E0,7.947000504E0,-3.922050238E0
1.586939621E0,-3.268950224E0,7.897050381E0,-3.951000214E0
1.589473235E0,-3.211950064E0,7.834950447E0,-3.988950253E0
1.592007004E0,-3.280950069E0,7.792050362E0,-4.069950104E0
1.594540621E0,-3.376950264E0,7.678950310E0,-4.213950157E0
1.597074388E0,-3.274050236E0,6.967950344E0,-4.753050327E0
1.599608006E0,-3.439050198E0,5.731950283E0,-4.276050091E0
1.602141773E0,-3.535050154E0,5.647950172E0,-3.451950073E0
1.604675390E0,-3.274050236E0,6.751950264E0,-4.618950367E0
1.607209182E0,-2.644050121E0,7.597950459E0,-5.967000484E0
1.609742799E0,-2.335050106E0,7.837050438E0,-5.914050102E0
1.612276566E0,-2.199000120E0,7.983000278E0,-5.164950371E0
1.614810184E0,-2.143050194E0,8.152950287E0,-4.285950184E0
1.617343951E0,-2.292000055E0,8.278050423E0,-3.474000216E0
1.619877568E0,-2.469000101E0,8.263950348E0,-2.961000204E0
1.622411107E0,-2.548050165E0,8.344950676E0,-2.923050165E0
1.624944874E0,-2.587050200E0,8.455050468E0,-3.328050137E0
1.627478739E0,-2.634000063E0,8.497950554E0,-3.895050287E0
1.630012280E0,-2.794950247E0,8.536950111E0,-4.321950436E0
1.632545895E0,-2.989050150E0,8.520000458E0,-4.521000385E0
1.635079662E0,-3.283050060E0,8.517000198E0,-4.516050339E0
1.637613280E0,-3.364950180E0,8.491050720E0,-4.348050117E0
1.640147047E0,-3.207000256E0,8.446050644E0,-4.252050400E0
1.642680664E0,-3.348000050E0,8.380949974E0,-4.104000092E0
1.645214432E0,-3.468000174E0,8.284950256E0,-3.991050243E0
1.647748059E0,-3.595050097E0,8.260950089E0,-4.075050354E0
1.650281826E0,-3.612000227E0,8.218050003E0,-4.339050293E0
1.652815444E0,-3.508950233E0,8.158050537E0,-4.723950386E0
1.655349211E0,-3.351000071E0,8.185050011E0,-5.002050400E0
1.657882832E0,-3.190050125E0,8.138999939E0,-5.100000381E0
1.660416371E0,-3.286050081E0,8.149050713E0,-5.092950344E0
1.662950215E0,-3.403050184E0,8.151000023E0,-4.948950291E0
1.665483984E0,-3.501000166E0,8.095950127E0,-4.807950020E0
1.668017521E0,-3.625950098E0,7.986000538E0,-4.698000431E0
1.670551136E0,-3.712050200E0,7.915950298E0,-4.578000069E0
1.673084980E0,-3.475050211E0,7.879950523E0,-4.300050259E0
1.675618521E0,-2.175000191E0,7.399050236E0,-3.577050209E0
1.678152283E0,-1.267050028E0,7.171050549E0,-3.658050060E0
1.680685900E0,-1.734000087E0,7.324950218E0,-4.521000385E0
1.683219667E0,-2.245950222E0,7.534950256E0,-5.140950203E0
1.685753285E0,-2.740050077E0,7.770000458E0,-5.296950340E0
1.688287023E0,-3.916050196E0,8.079000473E0,-5.152950287E0
1.690820640E0,-4.819050312E0,8.236949921E0,-4.801050186E0
1.693354408E0,-5.506050110E0,8.047950745E0,-4.306950092E0
1.695888025E0,-5.668950081E0,7.995000362E0,-4.008000374E0
1.698421787E0,-5.587050438E0,7.995000362E0,-3.874050140E0
1.700955328E0,-5.199000359E0,7.938000202E0,-4.008000374E0
1.703489172E0,-4.845000267E0,7.974000454E0,-4.200000286E0
1.706022712E0,-4.306050301E0,8.019000053E0,-4.504050255E0
1.708556571E0,-3.906000137E0,8.128950119E0,-4.699950218E0
1.711090188E0,-3.778950214E0,8.259000778E0,-4.669050217E0
1.713623726E0,-3.691050291E0,8.419050217E0,-4.530000210E0
1.716157494E0,-3.796050072E0,8.476950645E0,-4.426949978E0
1.718691097E0,-3.991950274E0,8.515049934E0,-4.318950176E0
1.721224864E0,-4.155000210E0,8.628000259E0,-4.207050323E0
1.723758482E0,-4.359000206E0,8.632050514E0,-4.111050129E0
1.726292249E0,-4.419000149E0,8.668050766E0,-4.044000149E0
1.728825876E0,-4.548000336E0,8.731050491E0,-4.006050110E0
1.731359644E0,-4.507050037E0,8.647050858E0,-4.015050411E0
1.733893261E0,-4.207950115E0,8.548950195E0,-4.132950306E0
1.736427028E0,-4.179000378E0,8.517000198E0,-4.018050194E0
1.738960650E0,-4.182000160E0,8.653950691E0,-4.045950413E0
1.741494417E0,-4.033050060E0,9.138000488E0,-3.855000257E0
1.744028034E0,-4.141050339E0,9.187950134E0,-3.735000134E0
1.746561801E0,-4.150050163E0,9.070950508E0,-3.982050180E0
1.749095338E0,-4.182000160E0,8.683050156E0,-4.032000065E0
1.751628951E0,-4.312950134E0,8.821949959E0,-4.180050373E0
1.754162720E0,-4.669950008E0,8.307000160E0,-3.838050127E0
1.756696567E0,-4.989000320E0,8.062050819E0,-4.261950016E0
1.759230107E0,-4.621950150E0,7.947000504E0,-4.702950001E0
1.761763723E0,-4.933950424E0,8.119950294E0,-4.189949989E0
1.764297490E0,-5.089050293E0,7.966950417E0,-4.089000225E0
1.766831107E0,-4.138050079E0,8.575050354E0,-4.603950024E0
1.769364874E0,-4.324950218E0,7.786950588E0,-3.747000217E0
1.771898492E0,-4.651050091E0,7.416000366E0,-4.212000370E0
1.774432259E0,-4.135950089E0,7.143000126E0,-5.016000271E0
1.776965876E0,-5.161050320E0,5.502000332E0,-5.293950081E0
1.779499624E0,-5.836950302E0,4.194000244E0,-3.757050276E0
1.782033241E0,-6.097950459E0,4.795950413E0,-3.739950180E0
1.784567008E0,-5.463000298E0,7.392000198E0,-5.446950436E0
1.787100626E0,-3.978000164E0,8.416950226E0,-5.340000153E0
1.789634408E0,-3.712050200E0,8.569950104E0,-4.618950367E0
1.792168025E0,-2.305950165E0,8.623050690E0,-4.084949970E0
1.794701564E0,-2.614950180E0,8.211000443E0,-2.812950134E0
1.797235331E0,-1.879950047E0,8.367000580E0,-2.443950176E0
1.799768943E0,-2.971950054E0,7.558950424E0,-1.881000042E0
1.802302711E0,-2.325000048E0,8.290050507E0,-2.487000227E0
1.804836328E0,-2.710950136E0,8.641950607E0,-2.734050035E0
1.807370172E0,-2.344950199E0,9.151950836E0,-3.084000111E0
1.809903718E0,-3.721950293E0,8.776050568E0,-3.462000132E0
1.812437485E0,-2.184000015E0,9.804000854E0,-3.888000250E0
1.814971102E0,-4.332000256E0,8.722949982E0,-3.019050121E0
1.817504869E0,-2.589000225E0,9.712950706E0,-3.388050079E0
1.820038496E0,-4.771050453E0,8.412000656E0,-2.454000235E0
1.822572263E0,-3.537000179E0,8.995950699E0,-3.373050213E0
1.825105881E0,-3.076950073E0,9.183000565E0,-2.971050024E0
1.827639648E0,-5.800950050E0,7.903950214E0,-3.364050150E0
1.830173270E0,-3.157050133E0,8.878950119E0,-4.549050331E0
1.832706809E0,-4.594050407E0,7.650000572E0,-3.985950232E0
1.835240576E0,-4.729950428E0,7.801050186E0,-4.437000275E0
1.837774193E0,-3.007950068E0,8.125050545E0,-4.552050114E0
1.840308042E0,-5.395950317E0,6.721050262E0,-4.305000305E0
1.842841812E0,-3.183000088E0,7.858950138E0,-4.654950142E0
1.845375352E0,-2.452050209E0,7.837050438E0,-3.823950291E0
1.847908967E0,-5.143950462E0,6.819000244E0,-3.811950207E0
1.850442773E0,-1.767000079E0,8.338050842E0,-4.365000248E0
1.852976390E0,-2.685000181E0,7.638000488E0,-2.808000088E0
1.855510157E0,-5.584950447E0,6.754950523E0,-3.349050045E0
1.858043775E0,-2.151000023E0,8.580000877E0,-4.675950050E0
1.860577552E0,-2.472000122E0,8.830950737E0,-2.869950056E0
1.863111169E0,-4.387950420E0,7.576050282E0,-2.620950222E0
1.865644937E0,-4.882950306E0,7.492050171E0,-4.565999985E0
1.868178554E0,-1.225950003E0,9.049050331E0,-4.282950401E0
1.870712292E0,-2.467050076E0,9.019950867E0,-2.386950016E0
1.873245910E0,-3.813000202E0,7.792050362E0,-2.863050222E0
1.875779677E0,-5.857950211E0,6.556050301E0,-4.120950222E0
1.878313294E0,-9.480000734E-1,8.323050499E0,-4.879950047E0
1.880846847E0,-1.408050060E0,8.766000748E0,-3.115050077E0
1.883380614E0,-3.715050220E0,8.017050743E0,-2.712000132E0
1.885914231E0,-4.332000256E0,7.075950146E0,-3.649050236E0
1.888447999E0,-6.114000320E0,6.439050198E0,-4.470000267E0
1.890981836E0,-1.627950072E0,8.101050377E0,-4.987950325E0
1.893515376E0,-1.843950033E0,8.425950050E0,-3.382950068E0
1.896048992E0,5.400000140E-2,7.294050217E0,-3.924000263E0
1.898582759E0,2.149500102E-1,7.084950447E0,-4.209000111E0
1.901116376E0,-3.670950174E0,6.589050293E0,-3.358950138E0
1.903650143E0,-3.328950167E0,7.162050247E0,-4.401000023E0
1.906183761E0,-2.062050104E0,8.941050529E0,-3.919050217E0
1.908717528E0,-3.484950066E0,9.291000366E0,-3.124050140E0
1.911251121E0,-3.853050232E0,9.444000244E0,-3.670050144E0
1.913784889E0,-3.810000181E0,9.226050377E0,-3.967050076E0
1.916318506E0,-3.829950094E0,8.913000107E0,-4.003050327E0
1.918852273E0,-3.838950157E0,8.484000206E0,-4.180050373E0
1.921385881E0,-3.757950068E0,8.071949959E0,-4.233000278E0
1.923919648E0,-3.480000257E0,7.684050560E0,-4.261950016E0
1.926453265E0,-3.424950123E0,7.381950378E0,-4.377000332E0
1.928986804E0,-3.298050165E0,7.261950493E0,-4.297950268E0
1.931520547E0,-3.082050085E0,7.315050125E0,-4.152000427E0
1.934054164E0,-3.091950178E0,7.545000553E0,-4.006050110E0
1.936587932E0,-3.813000202E0,7.725000381E0,-3.832950115E0
1.939121549E0,-5.725950241E0,6.682950497E0,-3.297000170E0
1.941655340E0,-3.019950151E0,7.120950222E0,-5.002050400E0
1.944188958E0,-8.595000207E-2,9.234000206E0,-4.303050041E0
1.946722725E0,-1.060950041E0,1.005495071E1,-2.584950209E0
1.949256342E0,-1.501950026E0,1.051200008E1,-2.454000235E0
1.951790096E0,-1.699950099E0,1.038795090E1,-2.647950172E0
1.954323713E0,-2.539050102E0,9.877950668E0,-3.028050184E0
1.956857480E0,-3.106050253E0,9.162000656E0,-3.543000221E0
1.959391098E0,-3.346050262E0,8.296950340E0,-3.787950277E0
1.961924869E0,-3.409950256E0,7.576050282E0,-4.072950363E0
1.964458486E0,-3.505950212E0,6.931950092E0,-4.291050434E0
1.966992025E0,-3.607050180E0,6.355050087E0,-4.260000229E0
1.969525792E0,-3.841050148E0,5.923950195E0,-4.252050400E0
1.972059648E0,-3.528000116E0,5.524050236E0,-4.291050434E0
1.974593265E0,-6.142950058E0,5.322000027E0,-3.807000160E0
1.977126804E0,-8.389950752E0,4.075050354E0,-3.550950050E0
1.979660571E0,-1.189950109E0,5.284050465E0,-6.801000118E0
1.982194175E0,-1.579500139E-1,7.155000210E0,-4.759950161E0
1.984727942E0,-1.606950045E0,9.018000603E0,-3.109950066E0
1.987261559E0,-2.848050117E0,9.547050476E0,-3.169950247E0
1.989795326E0,-4.476000309E0,9.592950821E0,-3.097950220E0
1.992328934E0,-4.917000294E0,9.363000870E0,-3.535950184E0
1.994862701E0,-4.857000351E0,8.635050774E0,-3.984000206E0
1.997396318E0,-5.218950272E0,7.837050438E0,-4.117949963E0
1.999930086E0,-4.926000118E0,7.167000294E0,-4.327050209E0
2.002463693E0,-5.146950245E0,6.379050255E0,-4.402950287E0
2.004997460E0,-7.675950527E0,6.385950089E0,-3.706050158E0
2.007531078E0,-9.100950241E0,5.442000389E0,-3.531000137E0
2.010064845E0,-2.698950052E0,7.084950447E0,-6.136950493E0
2.012598438E0,-1.432050109E0,9.307950020E0,-4.683000088E0
2.015131977E0,-2.257950068E0,9.942000389E0,-2.959050179E0
2.017665744E0,-3.609000206E0,9.966000557E0,-2.310000181E0
2.020199590E0,-4.744050026E0,1.022505093E1,-2.190000057E0
2.022733150E0,-4.978950024E0,9.633000374E0,-3.439950228E0
2.025266994E0,-5.094000340E0,9.049050331E0,-3.943050146E0
2.027800534E0,-4.933950424E0,8.398050308E0,-3.808950186E0
2.030334150E0,-4.567049980E0,8.091000557E0,-3.591000080E0
2.032867937E0,-4.440000057E0,7.995000362E0,-3.517050266E0
2.035401554E0,-4.059000015E0,7.909050465E0,-3.358950138E0
2.037935322E0,-4.320000172E0,8.115000725E0,-3.460050106E0
2.040468939E0,-4.582050323E0,8.187000275E0,-3.630000114E0
2.043002682E0,-4.617000103E0,8.014050484E0,-3.828000069E0
2.045536346E0,-4.669950008E0,7.819950581E0,-3.811950207E0
2.048070025E0,-4.725000381E0,7.660050392E0,-3.840000153E0
2.050662990E0,-4.938000202E0,7.570950508E0,-3.948000193E0
2.053137453E0,-4.998000145E0,7.315050125E0,-4.008000374E0
2.055671067E0,-5.695050240E0,7.645950317E0,-4.015050411E0
2.058204836E0,-6.706050396E0,7.780050278E0,-3.963000298E0
2.060738460E0,-5.439000130E0,7.753050327E0,-4.279050350E0
2.063271999E0,-4.669950008E0,7.579050541E0,-3.832950115E0
2.065805768E0,-4.219950199E0,7.252950191E0,-3.666000128E0
2.068339384E0,-1.720050097E0,8.446050644E0,-4.141950130E0
2.070873139E0,-1.960950136E0,9.415950775E0,-3.069000244E0
2.073406985E0,-3.385950089E0,1.009305000E1,-2.731950045E0
2.075940525E0,-3.994950294E0,9.724950790E0,-3.076050043E0
2.078474141E0,-4.519050121E0,8.755050659E0,-3.487950087E0
2.081007932E0,-4.773000240E0,7.876050472E0,-3.627000093E0
2.083541549E0,-4.705950260E0,7.534950256E0,-3.559950113E0
2.086075317E0,-4.543050289E0,7.588050365E0,-3.486000061E0
2.088608934E0,-4.474050045E0,7.773000240E0,-3.364050150E0
2.091142705E0,-4.419000149E0,8.059950829E0,-3.298950195E0
2.093676323E0,-4.264950275E0,8.326050758E0,-3.334950209E0
2.096210090E0,-4.138050079E0,8.419050217E0,-3.225000143E0
2.098743707E0,-4.288949966E0,8.367000580E0,-3.112050056E0
2.101277251E0,-4.095000267E0,8.314050674E0,-3.100050211E0
2.103811095E0,-3.793950081E0,8.335050583E0,-3.177000046E0
2.106344864E0,-3.718950272E0,8.364000320E0,-3.202950239E0
2.108878482E0,-3.781950235E0,8.416950226E0,-3.340050220E0
2.111412020E0,-4.078950405E0,8.362050056E0,-3.462000132E0
2.113945787E0,-4.039950371E0,8.299050331E0,-3.522000074E0
2.116479405E0,-3.976050138E0,8.175000191E0,-3.510000229E0
2.119013172E0,-4.131000042E0,7.942950249E0,-3.603000164E0
2.121546775E0,-4.251000404E0,7.722000599E0,-3.892950296E0
2.124080619E0,-4.299000263E0,7.558950424E0,-4.197000027E0
2.126614160E0,-4.435050011E0,7.368000507E0,-4.425000191E0
2.129147927E0,-4.558050156E0,7.228950500E0,-4.600050449E0
2.131681559E0,-4.540950298E0,7.171050549E0,-4.683000088E0
2.134215326E0,-3.994950294E0,7.272000313E0,-4.597050190E0
2.136748943E0,-4.240950108E0,7.351050377E0,-4.450950146E0
2.139282710E0,-4.057050228E0,7.444050312E0,-4.372050285E0
2.141816318E0,-3.717000246E0,7.521000385E0,-4.324050426E0
2.144350085E0,-3.778950214E0,7.543050289E0,-4.221000195E0
2.146883702E0,-3.619050264E0,7.576050282E0,-4.248000145E0
2.149417470E0,-3.175950050E0,7.702950478E0,-4.341000080E0
2.151951073E0,-3.094050169E0,7.708050251E0,-4.260000229E0
2.154484612E0,-3.163950205E0,7.785000324E0,-4.164000034E0
2.157018456E0,-3.303000212E0,7.933050156E0,-4.069950104E0
2.159552225E0,-3.382050276E0,7.975950241E0,-4.060950279E0
2.162085837E0,-3.231000185E0,8.059950829E0,-3.984000206E0
2.164619376E0,-3.063000202E0,7.600050449E0,-3.790050268E0
2.167153143E0,-3.195000172E0,7.677000523E0,-3.718050241E0
2.169686760E0,-3.652050257E0,8.152950287E0,-3.850050211E0
2.172220514E0,-3.798000097E0,8.247000694E0,-3.900000095E0
2.174754131E0,-3.312000275E0,8.311050415E0,-3.796950102E0
2.177287898E0,-3.259950161E0,8.338050842E0,-3.682050228E0
2.179821516E0,-4.488000393E0,7.903950214E0,-3.630000114E0
2.182355307E0,-7.474950314E0,7.780050278E0,-2.977950096E0
2.184888924E0,-6.838050365E0,7.329000473E0,-3.543000221E0
2.187422692E0,-2.517000198E0,7.522950172E0,-4.837050438E0
2.189956309E0,-2.857050180E0,8.101050377E0,-3.382950068E0
2.192490066E0,-2.517000198E0,9.004050255E0,-3.643950224E0
2.195023684E0,-3.315000057E0,9.825000763E0,-3.366000175E0
2.197557451E0,-3.685950279E0,9.190050125E0,-3.772950172E0
2.200091068E0,-4.861950397E0,9.442049980E0,-3.273000240E0
2.202624597E0,-4.636950016E0,8.992050171E0,-3.625050068E0
2.205158364E0,-4.450050354E0,8.737950325E0,-4.396049976E0
2.207692210E0,-4.387950420E0,8.581950188E0,-4.123050213E0
2.210225750E0,-4.632000446E0,8.389950752E0,-3.697050095E0
2.212759624E0,-4.585950375E0,8.425950050E0,-3.535950184E0
2.215293164E0,-4.696950436E0,8.480999947E0,-3.622050285E0
2.217826780E0,-5.017050266E0,8.347050667E0,-3.673050165E0
2.220360547E0,-5.491950035E0,7.825050354E0,-3.667950153E0
2.222894164E0,-6.880950451E0,7.440000534E0,-3.736950159E0
2.225427931E0,-9.999000549E0,6.702000141E0,-4.006050110E0
2.227961549E0,-6.490050316E0,6.058050156E0,-4.815000057E0
2.230495316E0,-3.513000250E0,5.682000160E0,-4.108950138E0
2.233028943E0,-8.410500288E-1,7.003950119E0,-4.282950401E0
2.235562711E0,-8.070000410E-1,7.417950153E0,-3.654000282E0
2.238096328E0,-3.063000202E0,9.118950844E0,-2.347950220E0
2.240630095E0,-4.603050232E0,9.793950081E0,-2.238000154E0
2.243163703E0,-6.442050457E0,9.391950607E0,-2.833950043E0
2.245697470E0,-1.115595055E1,8.472000122E0,-2.680950165E0
2.248231087E0,-7.159050465E0,5.976000309E0,-4.702950001E0
2.250764855E0,-2.974050045E0,4.728000164E0,-3.883950233E0
2.253298352E0,5.895000324E-2,5.727000237E0,-3.412050247E0
2.255831965E0,-2.895000204E-2,6.940950394E0,-2.836950064E0
2.258365812E0,-2.115000010E0,9.277050018E0,-2.287950039E0
2.260899581E0,-3.925050259E0,1.035405064E1,-2.140050173E0
2.263433130E0,-4.387950420E0,9.958950043E0,-2.830050230E0
2.265966974E0,-4.524000168E0,8.986950874E0,-3.151050091E0
2.268500515E0,-5.523000240E0,8.239950180E0,-3.118950129E0
2.271034130E0,-1.079895020E1,8.031000137E0,-3.232050180E0
2.273567883E0,-7.089000225E0,6.721050262E0,-4.980000019E0
2.276101501E0,-2.337000132E0,6.181950092E0,-4.285950184E0
2.278635268E0,-1.875000119E0,6.229950428E0,-2.872950077E0
2.281168886E0,-1.171050072E0,6.691950321E0,-3.426000118E0
2.283702677E0,-1.185000062E0,7.986000538E0,-3.100050211E0
2.286236294E0,-1.516050100E0,7.645950317E0,-2.997000217E0
2.288770061E0,-2.965050220E0,8.335050583E0,-3.096000195E0
2.291303679E0,-3.456000090E0,8.527050018E0,-3.412050247E0
2.293837432E0,-3.091950178E0,8.092950821E0,-3.558000088E0
2.296371049E0,-2.413950205E0,7.710000515E0,-3.546000242E0
2.298904817E0,-2.104950190E0,7.087950230E0,-3.589050055E0
2.301438434E0,-2.494950056E0,8.131950378E0,-2.892000198E0
2.303971967E0,-2.971950054E0,8.929050446E0,-2.949000120E0
2.306505812E0,-3.232950211E0,9.157050133E0,-3.214950085E0
2.309039352E0,-3.147000074E0,9.031949997E0,-3.112050056E0
2.311573196E0,-3.031950235E0,8.778000832E0,-2.952000141E0
2.314106742E0,-2.982000113E0,8.601000786E0,-3.045000076E0
2.316640586E0,-2.818950176E0,8.577000618E0,-3.118950129E0
2.319174126E0,-2.757000208E0,8.536950111E0,-3.217950106E0
2.321707894E0,-2.857050180E0,8.496000290E0,-3.361050129E0
2.324241516E0,-2.994000196E0,8.529000282E0,-3.322950125E0
2.326775283E0,-3.136950254E0,8.545949936E0,-3.354000092E0
2.329308901E0,-3.243000269E0,8.485950470E0,-3.337050200E0
2.331842668E0,-3.385950089E0,8.452950478E0,-3.346950054E0
2.334376313E0,-3.453000069E0,8.355000496E0,-3.586950064E0
2.336910080E0,-3.529950142E0,8.278050423E0,-3.598050117E0
2.339443698E0,-3.577950239E0,8.211000443E0,-3.763950109E0
2.341977465E0,-3.742950201E0,8.182050705E0,-3.733050108E0
2.344511011E0,-3.745950222E0,8.211000443E0,-3.675000191E0
2.347044855E0,-3.906000137E0,8.302050591E0,-3.667950153E0
2.349578472E0,-4.083000183E0,8.320950508E0,-3.843000174E0
2.352112239E0,-4.246050358E0,8.386050224E0,-4.101000309E0
2.354645857E0,-4.456950188E0,8.350049973E0,-4.297950268E0
2.357179395E0,-4.576950073E0,8.332950592E0,-4.506000042E0
2.359713239E0,-4.729950428E0,8.199000359E0,-4.542000294E0
2.362246780E0,-5.046000004E0,8.089050293E0,-4.669050217E0
2.364780600E0,-5.110950470E0,7.993050575E0,-4.686000347E0
2.367314140E0,-5.137050152E0,7.774950504E0,-4.876950264E0
2.369847908E0,-5.283000469E0,7.780050278E0,-4.906050205E0
2.372381525E0,-5.491950035E0,7.662000179E0,-4.765050411E0
2.374915292E0,-5.422050476E0,7.279050350E0,-5.220000267E0
2.377448910E0,-5.524950027E0,8.493000031E0,-4.798050404E0
2.379982677E0,-5.346000195E0,8.302050591E0,-4.351050377E0
2.382516294E0,-5.116050243E0,8.392950058E0,-4.687950134E0
2.385050052E0,-5.044050217E0,8.563050270E0,-4.573050022E0
2.387583669E0,-4.902000427E0,8.443050385E0,-4.645050049E0
2.390117436E0,-4.783050060E0,8.355000496E0,-4.791000366E0
2.392651054E0,-4.459050179E0,8.707050323E0,-4.518000126E0
2.395184826E0,-4.243950367E0,9.001049995E0,-4.468050003E0
2.397718366E0,-4.014000416E0,9.042000771E0,-4.413000107E0
2.400252210E0,-3.790950298E0,8.968050003E0,-4.354950428E0
2.402785828E0,-3.520950079E0,8.934000015E0,-4.213950157E0
2.405319600E0,-3.286050081E0,8.797950745E0,-4.068000317E0
2.407853218E0,-3.240000248E0,8.656050682E0,-4.185000420E0
2.410386756E0,-3.715050220E0,8.830950737E0,-4.333950043E0
2.412920523E0,-1.257900047E1,1.051200008E1,-4.504050255E0
2.415454165E0,-2.970000029E0,8.161050797E0,-5.923950195E0
2.417987932E0,3.847950220E0,6.394950390E0,-5.256000042E0
2.420521778E0,8.610000610E-1,6.679950237E0,-3.127050161E0
2.423055318E0,-1.533000112E0,7.729050159E0,-2.548950195E0
2.425588934E0,-2.380950212E0,8.476950645E0,-3.024000168E0
2.428122701E0,-2.634000063E0,8.379000664E0,-3.690000057E0
2.430656318E0,-2.698950052E0,8.077050209E0,-4.105950356E0
2.433190086E0,-2.148000002E0,7.962000370E0,-3.745050192E0
2.435723708E0,-2.014050007E0,7.962000370E0,-3.277950048E0
2.438257475E0,-2.200950146E0,8.002050400E0,-3.306000233E0
2.440791093E0,-2.341950178E0,7.786950588E0,-3.783000231E0
2.443324860E0,-2.818950176E0,8.053050041E0,-3.985950232E0
2.445858448E0,-3.373950243E0,8.244000435E0,-3.963000298E0
2.448392216E0,-3.469950199E0,8.034000397E0,-4.141950130E0
2.450925833E0,-3.547050238E0,8.043000221E0,-4.312050343E0
2.453459600E0,-3.511050224E0,8.050050735E0,-4.159049988E0
2.455993218E0,-3.372000217E0,8.104949951E0,-4.212000370E0
2.458526985E0,-3.243000269E0,8.173049927E0,-4.330950260E0
2.461060602E0,-3.178050041E0,8.248950005E0,-4.177950382E0
2.463594369E0,-3.034050226E0,8.376000404E0,-4.223999977E0
2.466127929E0,-2.838000059E0,8.485950470E0,-4.125000000E0
2.468661542E0,-2.644050121E0,8.556000710E0,-3.883950233E0
2.471195312E0,-2.268000126E0,8.640000343E0,-3.759000063E0
2.473729158E0,-1.911000133E0,8.637000084E0,-3.667950153E0
2.476262693E0,-1.456050038E0,8.282999992E0,-3.706050158E0
2.478796309E0,-1.755000114E0,9.010950089E0,-3.499950171E0
2.481330076E0,-1.573050022E0,9.286050797E0,-3.139050245E0
2.483863693E0,-1.336050034E0,9.298050880E0,-3.393000126E0
2.486397489E0,-1.114050031E0,9.255000114E0,-3.405000210E0
2.488931107E0,-1.120950103E0,9.217050552E0,-3.418950081E0
2.491464874E0,-1.023000002E0,9.090000153E0,-3.388050079E0
2.493998491E0,-9.460500479E-1,9.018000603E0,-3.439950228E0
2.496532268E0,-8.809500337E-1,8.913000107E0,-3.496050119E0
2.499065885E0,-8.550000191E-1,8.713950157E0,-3.475950241E0
2.501599652E0,-9.340500236E-1,8.545949936E0,-3.523950100E0
2.504133270E0,-1.175999999E0,8.404950142E0,-3.579000235E0
2.506667023E0,-1.417950034E0,8.227950096E0,-3.694050074E0
2.509200640E0,-1.618950129E0,8.053050041E0,-3.874050140E0
2.511734408E0,-1.720050097E0,7.930950165E0,-3.820950270E0
2.514268025E0,-1.966050148E0,7.852050304E0,-3.856950283E0
2.516801544E0,-2.131050110E0,7.720050335E0,-3.871950150E0
2.519335312E0,-2.248950005E0,7.648050308E0,-3.850050211E0
2.521869158E0,-2.347050190E0,7.636050224E0,-3.862050295E0
2.524402775E0,-2.424000025E0,7.618950367E0,-3.828000069E0
2.526936352E0,-2.539050102E0,7.638000488E0,-3.751950264E0
2.529470196E0,-2.515050173E0,7.690950394E0,-3.709050179E0
2.532003736E0,-2.304000139E0,7.830000401E0,-3.666000128E0
2.534537504E0,-2.200950146E0,7.797000408E0,-3.594000101E0
2.537071088E0,-2.208000183E0,7.837050438E0,-3.457050085E0
2.539604855E0,-2.139000177E0,7.930950165E0,-3.448050261E0
2.542138473E0,-2.071950197E0,7.969050407E0,-3.421050072E0
2.544672240E0,-1.870050073E0,7.926000595E0,-3.507000208E0
2.547205866E0,-1.957050085E0,7.939950466E0,-3.457050085E0
2.549739633E0,-2.212949991E0,8.053050041E0,-3.376050234E0
2.552273251E0,-2.373000145E0,8.185050011E0,-3.499950171E0
2.554807018E0,-2.401950121E0,8.307000160E0,-3.535950184E0
2.557340616E0,-2.455050230E0,8.491050720E0,-3.546000242E0
2.559874384E0,-2.493000031E0,8.664000511E0,-3.673050165E0
2.562408001E0,-2.455050230E0,8.842950821E0,-3.751950264E0
2.564941768E0,-2.299050093E0,8.946000099E0,-3.637050152E0
2.567475371E0,-2.175000191E0,9.007950783E0,-3.565050125E0
2.570008909E0,-1.990050077E0,8.977050781E0,-3.517050266E0
2.572542676E0,-1.843950033E0,8.896050453E0,-3.450000048E0
2.575076523E0,-1.803000093E0,8.728050232E0,-3.442950249E0
2.577610155E0,-1.909050107E0,8.707050323E0,-3.460050106E0
2.580143693E0,-1.885050058E0,8.665950775E0,-3.462000132E0
2.582677461E0,-1.771950126E0,8.551050186E0,-3.409050226E0
2.585211078E0,-1.854000092E0,8.480999947E0,-3.466950178E0
2.587744826E0,-1.975950122E0,8.389950752E0,-3.541050196E0
2.590278444E0,-2.080950022E0,8.331000328E0,-3.690000057E0
2.592812211E0,-2.317950010E0,8.268000603E0,-3.730050087E0
2.595345828E0,-2.433000088E0,8.164950371E0,-3.760950089E0
2.597879591E0,-2.533950090E0,8.067000389E0,-3.795000076E0
2.600413208E0,-2.506950140E0,7.942950249E0,-3.928950071E0
2.602946975E0,-2.431050062E0,7.867950439E0,-4.051050186E0
2.605480593E0,-2.440050125E0,7.822950363E0,-4.104000092E0
2.608014365E0,-2.457000017E0,7.734000206E0,-4.243050098E0
2.610547982E0,-2.527050018E0,7.746000290E0,-4.330950260E0
2.613081749E0,-2.734950066E0,7.804050446E0,-4.315050125E0
2.615615367E0,-3.075000048E0,7.878000259E0,-4.342950344E0
2.618149119E0,-3.340950251E0,7.974000454E0,-4.434000015E0
2.620682736E0,-3.577950239E0,7.990950584E0,-4.468050003E0
2.623216504E0,-3.894000292E0,7.942950249E0,-4.453950405E0
2.625750044E0,-4.213050365E0,7.890000343E0,-4.532999992E0
2.628283845E0,-4.427999973E0,7.842000484E0,-4.603950024E0
2.630817386E0,-4.555050373E0,7.792050362E0,-4.651950359E0
2.633351230E0,-4.657950401E0,7.762950420E0,-4.615950108E0
2.635884770E0,-4.780050278E0,7.705050468E0,-4.627950191E0
2.638418391E0,-4.840050220E0,7.725000381E0,-4.600050449E0
2.640952158E0,-4.867050171E0,7.816050529E0,-4.528050423E0
2.643485775E0,-4.870950222E0,7.897050381E0,-4.513050079E0
2.646019543E0,-4.855050087E0,7.966950417E0,-4.489050388E0
2.648553131E0,-4.834950447E0,7.978950500E0,-4.458000183E0
2.651086898E0,-4.845000267E0,8.038050652E0,-4.414950371E0
2.653620516E0,-4.807050228E0,8.110050201E0,-4.381950378E0
2.656154283E0,-4.728000164E0,8.161050797E0,-4.374000072E0
2.658687890E0,-4.594050407E0,8.208000183E0,-4.288050175E0
2.661221429E0,-4.522050381E0,8.242050171E0,-4.183050156E0
2.663755273E0,-4.356000423E0,8.263950348E0,-4.093950272E0
2.666289042E0,-4.225049973E0,8.199000359E0,-3.970050097E0
2.668822646E0,-4.228950024E0,8.116950035E0,-3.706050158E0
2.671356413E0,-4.102950096E0,8.143950462E0,-3.895050287E0
2.673889953E0,-3.991950274E0,8.127000809E0,-4.164000034E0
2.676423797E0,-3.928050280E0,8.077050209E0,-4.096950054E0
2.678957352E0,-3.822000265E0,7.998000145E0,-4.089000225E0
2.681491196E0,-3.832050085E0,7.969050407E0,-4.161000252E0
2.684024737E0,-3.988050222E0,8.029050827E0,-4.305000305E0
2.686558581E0,-4.131000042E0,8.041049957E0,-4.426949978E0
2.689092116E0,-4.174050331E0,8.022000313E0,-4.444050312E0
2.691625732E0,-4.206000328E0,8.023950577E0,-4.398000240E0
2.694159499E0,-4.213050365E0,8.046000481E0,-4.393949986E0
2.696693116E0,-4.090950012E0,8.070000648E0,-4.408050060E0
2.699226883E0,-3.765000105E0,8.131950378E0,-4.422000408E0
2.701760501E0,-3.664050102E0,8.151000023E0,-4.408050060E0
2.704294268E0,-3.513000250E0,8.335050583E0,-4.432050228E0
2.706827885E0,-3.504000187E0,8.389950752E0,-4.339050293E0
2.709361648E0,-3.394050121E0,8.400000572E0,-4.353000164E0
2.711895265E0,-3.244950056E0,8.379000664E0,-4.408050060E0
2.714428804E0,-3.262050152E0,8.307000160E0,-4.408050060E0
2.716962648E0,-3.324000120E0,8.271000862E0,-4.294950008E0
2.719496446E0,-3.130050182E0,8.191950798E0,-4.168950081E0
2.722030063E0,-3.001050234E0,8.161050797E0,-4.063050270E0
2.724563831E0,-2.958000183E0,8.163000107E0,-3.673050165E0
2.727097448E0,-3.262050152E0,8.223000526E0,-4.177950382E0
2.729630991E0,-3.376950264E0,8.208000183E0,-4.248000145E0
2.732164759E0,-3.361950159E0,8.138999939E0,-4.054049969E0
2.734698376E0,-3.250050068E0,8.113050461E0,-3.931050301E0
2.737232220E0,-3.085050106E0,8.095950127E0,-3.967050076E0
2.739766019E0,-2.922000170E0,8.182050705E0,-3.940950155E0
2.742299560E0,-2.848050117E0,8.307000160E0,-3.928950071E0
2.744833175E0,-3.046050072E0,8.398050308E0,-3.886050224E0
2.747366943E0,-3.121050119E0,8.461950302E0,-3.850050211E0
2.749900569E0,-3.073050261E0,8.527050018E0,-3.867000103E0
2.752434336E0,-2.962950230E0,8.524950027E0,-4.039050102E0
2.754967954E0,-2.806950092E0,8.488950729E0,-4.233000278E0
2.757501721E0,-2.782950163E0,8.472000122E0,-4.281000137E0
2.760035353E0,-2.754000187E0,8.422050476E0,-4.462950230E0
2.762569120E0,-2.668050051E0,8.500950813E0,-4.339050293E0
2.765102738E0,-2.602950096E0,8.589000702E0,-3.787950277E0
2.767636505E0,-2.644050121E0,8.557950020E0,-3.591000080E0
2.770170122E0,-2.460000038E0,8.551050186E0,-3.760950089E0
2.772703890E0,-2.512050152E0,8.563050270E0,-3.828000069E0
2.775237507E0,-2.395050049E0,8.575050354E0,-3.649050236E0
2.777771274E0,-1.209000111E0,8.529000282E0,-3.663000107E0
2.780304901E0,-8.290500641E-1,8.577000618E0,-3.634050131E0
2.782838668E0,-1.365000010E0,8.692049980E0,-3.402000189E0
2.785372208E0,-1.177950025E0,8.743050575E0,-3.562950134E0
2.787905822E0,2.869500220E-1,8.652000427E0,-3.603000164E0
2.790439683E0,1.137000084E0,8.527050018E0,-3.153000116E0
2.792973452E0,5.620500445E-1,8.674950600E0,-2.983050108E0
2.795507070E0,7.390500307E-1,8.629950523E0,-3.217950106E0
2.798040608E0,1.426950097E0,8.520000458E0,-3.250950098E0
2.800574399E0,1.375950098E0,8.512949944E0,-3.214950085E0
2.803108017E0,1.338000059E0,8.485950470E0,-3.199050188E0
2.805641784E0,1.467000127E0,8.509950638E0,-3.189000130E0
2.808175401E0,1.474050045E0,8.560950279E0,-3.142950058E0
2.810709259E0,1.245000005E0,8.731050491E0,-3.100050211E0
2.813242800E0,1.134000063E0,8.668050766E0,-3.225000143E0
2.815776567E0,1.113000035E0,8.461950302E0,-3.625050068E0
2.818310185E0,7.459500432E-1,8.307000160E0,-3.895050287E0
2.820843947E0,9.000000358E-2,8.256000519E0,-4.012950420E0
2.823377564E0,-5.700000376E-2,8.092950821E0,-4.140000343E0
2.825911331E0,-7.695000619E-2,8.127000809E0,-4.057950020E0
2.828444949E0,-1.819500029E-1,8.164950371E0,-3.759000063E0
2.830978726E0,-3.090000153E-1,8.161050797E0,-3.558000088E0
2.833512343E0,-4.600500166E-1,8.070000648E0,-3.424050093E0
2.836046111E0,-4.740000367E-1,7.870950222E0,-3.108000040E0
2.838579728E0,-3.640500307E-1,7.813050270E0,-3.055050135E0
2.841113481E0,-4.800000042E-2,7.882950306E0,-3.310950041E0
2.843647099E0,2.290500104E-1,8.161050797E0,-3.577050209E0
2.846180866E0,5.569500327E-1,8.480999947E0,-3.721050262E0
2.848714483E0,8.299500346E-1,8.838000298E0,-3.694050074E0
2.851248246E0,9.499500394E-1,9.042000771E0,-3.402000189E0
2.853781786E0,1.137000084E0,9.375000000E0,-2.947050095E0
2.856315399E0,8.040000200E-1,9.574050903E0,-2.683950186E0
2.858849169E0,4.830000103E-1,9.739050865E0,-2.590050220E0
2.861382810E0,6.910500526E-1,9.724950790E0,-2.521050215E0
2.863916577E0,6.979500055E-1,9.753000259E0,-2.632950068E0
2.866450195E0,8.010000587E-1,9.691050529E0,-2.740950108E0
2.868983962E0,7.489500642E-1,9.636000633E0,-2.872950077E0
2.871517569E0,4.420500100E-1,9.535050392E0,-2.890050173E0
2.874051337E0,4.009500146E-1,9.327000618E0,-2.929950237E0
2.876584954E0,1.549500078E-1,9.109050751E0,-3.723000288E0
2.879118721E0,-2.200500071E-1,8.812050819E0,-3.724950075E0
2.881652325E0,-6.970500350E-1,8.584050179E0,-3.739950180E0
2.884186092E0,-1.240950108E0,8.689949989E0,-5.098050117E0
2.886719709E0,-1.432050109E0,8.484000206E0,-4.900950432E0
2.889253476E0,-1.939950109E0,8.278050423E0,-4.578000069E0
2.891787098E0,-2.851950169E0,8.295000076E0,-4.372050285E0
2.894320865E0,-3.403050184E0,8.340000153E0,-4.192049980E0
2.896854482E0,-3.577950239E0,8.331000328E0,-4.401000023E0
2.899388250E0,-3.493950129E0,8.398050308E0,-4.714950085E0
2.901921858E0,-3.736050129E0,8.484000206E0,-4.771950245E0
2.904455625E0,-3.934950113E0,8.422050476E0,-4.891950130E0
2.906989243E0,-3.774000168E0,8.431050301E0,-4.971000195E0
2.909523010E0,-3.985050201E0,8.641950607E0,-4.801050186E0
2.912056564E0,-3.565950155E0,8.683050156E0,-4.681050301E0
2.914590409E0,-3.160950184E0,8.629950523E0,-4.923000336E0
2.917123949E0,-3.777000189E0,9.006000519E0,-4.818000317E0
2.919657564E0,-4.051949978E0,9.190050125E0,-4.209000111E0
2.922191400E0,-3.846000195E0,9.087000847E0,-4.033950329E0
2.924724940E0,-3.432000160E0,9.118950844E0,-4.405950069E0
2.927258707E0,-3.043950081E0,9.102000237E0,-4.570950031E0
2.929792325E0,-3.789000273E0,9.292950630E0,-4.176000118E0
2.932326101E0,-3.565950155E0,9.265050888E0,-3.781050205E0
2.934859718E0,-3.421950102E0,9.310050011E0,-3.859950066E0
2.937393486E0,-2.800050020E0,9.178050041E0,-4.075050354E0
2.939927103E0,-3.190050125E0,9.186000824E0,-3.951000214E0
2.942460870E0,-3.303000212E0,9.250050545E0,-3.727950096E0
2.944994488E0,-3.171000242E0,9.178050041E0,-3.936000109E0
2.947528255E0,-2.934000254E0,9.102000237E0,-4.009950161E0
2.950061872E0,-3.061050177E0,8.968050003E0,-4.096950054E0
2.952595649E0,-3.481950283E0,8.982000351E0,-3.985950232E0
2.955129267E0,-3.525000095E0,8.896050453E0,-4.015050411E0
2.957663034E0,-3.436950207E0,8.776050568E0,-4.201950073E0
2.960196651E0,-3.493950129E0,8.665950775E0,-4.501049995E0
2.962730390E0,-3.730950117E0,8.560950279E0,-4.545000076E0
2.965263930E0,-4.095000267E0,8.632050514E0,-4.522950172E0
2.967797544E0,-4.174050331E0,8.719050407E0,-4.485000134E0
2.970331390E0,-3.978000164E0,8.637000084E0,-4.398000240E0
2.972865144E0,-4.014000416E0,8.641950607E0,-4.446000099E0
2.975398761E0,-4.081050396E0,8.680050850E0,-4.482000351E0
2.977932300E0,-4.165050030E0,8.625000000E0,-4.324050426E0
2.980466067E0,-4.009050369E0,8.452950478E0,-4.156949997E0
2.982999684E0,-3.952050209E0,8.460000038E0,-4.096950054E0
2.985533452E0,-3.994950294E0,8.785950661E0,-4.152000427E0
2.988067069E0,-3.814950228E0,8.944050789E0,-4.164000034E0
2.990600836E0,-3.592050076E0,9.042000771E0,-3.982050180E0
2.993134677E0,-3.384000063E0,9.082950592E0,-3.586950064E0
2.995668218E0,-3.343050241E0,9.106950760E0,-3.462000132E0
2.998201833E0,-3.328950167E0,9.085050583E0,-3.472050190E0
3.000735601E0,-3.346050262E0,9.075000763E0,-3.342000246E0
3.003269242E0,-3.226050138E0,9.065999985E0,-3.201000214E0
3.005803009E0,-2.982000113E0,8.982000351E0,-3.079050064E0
3.008336627E0,-2.614950180E0,8.941050529E0,-2.964000225E0
3.010870394E0,-2.500050068E0,8.982000351E0,-2.904000044E0
3.013403997E0,-2.436000109E0,8.994000435E0,-2.964000225E0
3.015937764E0,-2.629950047E0,8.953050613E0,-3.057000160E0
3.018471382E0,-2.373000145E0,8.745000839E0,-3.115050077E0
3.021005149E0,-2.184000015E0,8.659049988E0,-3.109950066E0
3.023538761E0,-2.067000151E0,8.593950272E0,-3.061950207E0
3.026072529E0,-1.890000105E0,8.572050095E0,-2.977950096E0
3.028606146E0,-1.831950068E0,8.544000626E0,-2.806050062E0
3.031139913E0,-1.741050124E0,8.461950302E0,-2.722050190E0
3.033673541E0,-1.546950102E0,8.401950836E0,-2.674050093E0
3.036207308E0,-1.288050056E0,8.284950256E0,-2.559000015E0
3.038740848E0,-1.063050032E0,8.235000610E0,-2.775000095E0
3.041274462E0,-9.319500327E-1,8.304000854E0,-2.940000057E0
3.043808207E0,-8.670000434E-1,8.488950729E0,-3.004950047E0
3.046341922E0,-7.849500179E-1,8.725950241E0,-3.073950052E0
3.048884000E0,-7.759500146E-1,8.890950203E0,-3.052050114E0
3.051409233E0,-7.540500164E-1,9.004050255E0,-2.995050192E0
3.053943000E0,-8.910000324E-1,9.058950424E0,-3.055050135E0
3.056476616E0,-8.310000300E-1,9.187950134E0,-2.857950211E0
3.059010399E0,-6.559500098E-1,9.328950882E0,-3.067050219E0
3.061544014E0,-6.250500083E-1,8.983950615E0,-3.165000200E0
3.064077784E0,-9.000000358E-1,8.734950066E0,-3.136050224E0
3.066611401E0,-8.569500446E-1,8.680050850E0,-3.378000259E0
3.069145168E0,-7.810500264E-1,8.659049988E0,-3.346950054E0
3.071678786E0,-7.090500593E-1,8.613000870E0,-3.246000051E0
3.074212553E0,-1.105949998E0,8.704050064E0,-3.460050106E0
3.076746170E0,-1.312050104E0,8.845950127E0,-3.820950270E0
3.079279937E0,-1.333950043E0,8.959950447E0,-3.340050220E0
3.081813555E0,-1.915950060E0,8.689949989E0,-3.394950151E0
3.084347322E0,-2.368950129E0,8.841000557E0,-2.899050236E0
3.086880939E0,-2.533950090E0,9.091950417E0,-2.545050144E0
3.089414707E0,-2.614950180E0,8.970000267E0,-3.297000170E0
3.091948324E0,-3.030000210E0,8.710950851E0,-3.879000187E0
3.094482091E0,-3.633000135E0,8.473950386E0,-3.796950102E0
3.097015709E0,-3.991950274E0,8.115000725E0,-3.790050268E0
3.099549233E0,-4.002000332E0,7.846950531E0,-3.706050158E0
3.102083077E0,-3.970950127E0,7.840050220E0,-3.802050114E0
3.104616618E0,-4.186050415E0,7.962000370E0,-4.135050297E0
3.107150462E0,-4.419000149E0,8.022000313E0,-4.294950008E0
3.109684221E0,-4.567049980E0,7.975950241E0,-4.327050209E0
3.112217762E0,-4.744050026E0,7.891950607E0,-4.152000427E0
3.114751377E0,-4.495050430E0,7.915950298E0,-3.874050140E0
3.117285144E0,-4.432950020E0,7.962000370E0,-3.727950096E0
3.119818767E0,-4.273050308E0,8.074049950E0,-3.723000288E0
3.122352534E0,-4.095000267E0,8.125050545E0,-3.727950096E0
3.124886380E0,-3.789000273E0,8.119950294E0,-3.888000250E0
3.127419921E0,-3.609000206E0,8.152950287E0,-3.919050217E0
3.129953536E0,-3.585000277E0,8.272950172E0,-3.759000063E0
3.132487303E0,-3.496950150E0,8.356950760E0,-3.466950178E0
3.135020921E0,-3.460950136E0,8.319000244E0,-3.298950195E0
3.137554688E0,-3.300000191E0,8.244000435E0,-3.318000078E0
3.140088300E0,-2.941050053E0,8.248950005E0,-3.831000090E0
3.142622067E0,-2.809050083E0,8.449950218E0,-4.990050316E0
3.145155685E0,-2.958000183E0,8.493000031E0,-4.446000099E0
3.147689452E0,-3.427050114E0,8.568000793E0,-3.988950253E0
3.150223059E0,-3.556050062E0,8.517000198E0,-3.931050301E0
3.152756827E0,-3.412950277E0,8.398050308E0,-4.008000374E0
3.155290444E0,-3.168000221E0,8.319000244E0,-3.997950077E0
3.157824211E0,-3.067950249E0,8.242050171E0,-4.117949963E0
3.160357820E0,-3.013050079E0,8.266050339E0,-4.117949963E0
3.162891587E0,-3.243000269E0,8.449950218E0,-4.063050270E0
3.165425204E0,-3.382050276E0,8.661000252E0,-3.972000122E0
3.167958972E0,-3.552000284E0,8.812050819E0,-4.008000374E0
3.170492565E0,-3.814950228E0,8.853000641E0,-4.195050240E0
3.173026103E0,-3.940050125E0,8.878950119E0,-4.212000370E0
3.175559871E0,-4.027950287E0,8.845950127E0,-4.141950130E0
3.178093717E0,-4.339950085E0,8.797950745E0,-4.204050064E0
3.180627286E0,-4.615050316E0,8.737950325E0,-4.260000229E0
3.183160902E0,-4.765950203E0,8.572050095E0,-4.324050426E0
3.185694746E0,-5.008050442E0,8.455050468E0,-4.402950287E0
3.188228515E0,-5.190000057E0,8.290050507E0,-4.357950211E0
3.190762051E0,-5.353050232E0,8.116950035E0,-4.305000305E0
3.193295666E0,-5.461050034E0,7.969050407E0,-4.180050373E0
3.195829433E0,-5.680950165E0,7.858950138E0,-4.116000175E0
3.198363051E0,-5.947050095E0,7.930950165E0,-4.069950104E0
3.200896827E0,-6.256050110E0,7.986000538E0,-3.883950233E0
3.203430444E0,-5.865000248E0,7.603050232E0,-3.955050230E0
3.205964211E0,-4.843050003E0,7.012950420E0,-3.868950129E0
3.208497829E0,-4.519050121E0,6.922050476E0,-3.625050068E0
3.211031587E0,-4.504950047E0,7.063950539E0,-3.745050192E0
3.213565204E0,-4.615050316E0,7.332000256E0,-3.910050154E0
3.216098972E0,-4.692000389E0,7.609950542E0,-3.972000122E0
3.218632589E0,-4.849950314E0,7.750950336E0,-3.790050268E0
3.221166322E0,-4.725000381E0,8.055000305E0,-4.497000217E0
3.223699940E0,-4.627050400E0,8.299050331E0,-3.313050270E0
3.226233707E0,-4.510050297E0,8.125050545E0,-2.845950127E0
3.228767324E0,-3.834000111E0,8.023950577E0,-4.462950230E0
3.231301087E0,-3.180000067E0,7.650000572E0,-3.799950123E0
3.233834704E0,-3.172950268E0,7.696050167E0,-3.253950119E0
3.236368471E0,-3.444000244E0,7.983000278E0,-3.309000254E0
3.238902089E0,-2.095950127E0,7.933050156E0,-3.784950256E0
3.241435870E0,-9.529500604E-1,7.921050549E0,-3.721050262E0
3.243969487E0,-7.780500650E-1,8.125050545E0,-3.021000147E0
3.246503254E0,-8.550000191E-1,8.521950722E0,-3.175050259E0
3.249036872E0,-5.269500017E-1,7.552050591E0,-3.124050140E0
3.251570401E0,-6.919500232E-1,7.626000404E0,-2.968950033E0
3.254104169E0,-8.089500666E-1,7.986000538E0,-2.772000074E0
3.256638015E0,-1.293000102E0,8.452950478E0,-2.799000025E0
3.259171555E0,-1.425000072E0,8.860050201E0,-2.848950148E0
3.261705432E0,-9.750000238E-1,8.496000290E0,-3.345000267E0
3.264238973E0,-1.987950087E0,8.913000107E0,-2.937000036E0
3.266772588E0,-2.914950132E0,9.268950462E0,-2.128050089E0
3.269306355E0,-3.136950254E0,9.121050835E0,-2.763000250E0
3.271839988E0,-3.274050236E0,8.434050560E0,-3.157950163E0
3.274373755E0,-2.340000153E0,7.798950195E0,-3.220050097E0
3.276907372E0,-1.470000029E0,8.412000656E0,-3.052050114E0
3.279441140E0,-3.499500155E-1,8.889000893E0,-2.727000237E0
3.281974762E0,2.650500238E-1,9.223950386E0,-2.355000019E0
3.284508529E0,2.939999998E-1,9.636000633E0,-2.130000114E0
3.287042147E0,2.550000250E-1,9.720000267E0,-2.275950193E0
3.289575914E0,3.540000021E-1,9.978000641E0,-2.310000181E0
3.292109550E0,2.050500065E-1,1.090800095E1,-1.936050057E0
3.294643318E0,3.060000241E-1,1.102305031E1,-1.920000076E0
3.297176935E0,2.890500128E-1,1.098405075E1,-2.205000162E0
3.299710702E0,2.820000052E-1,1.109895039E1,-2.217000008E0
3.302244320E0,2.980500162E-1,1.092900085E1,-2.262000084E0
3.304778087E0,1.639500111E-1,1.077600098E1,-2.527950048E0
3.307311704E0,1.605000161E-2,1.064700031E1,-2.784000158E0
3.309845471E0,-1.750500053E-1,1.035705090E1,-2.929950237E0
3.312379089E0,-6.199500561E-1,1.040505028E1,-3.424050093E0
3.314912856E0,-4.050000310E-1,1.064700031E1,-3.439950228E0
3.317446397E0,6.405000389E-2,1.037805080E1,-3.151050091E0
3.319980241E0,-2.779500186E-1,1.010805035E1,-3.318000078E0
3.322513877E0,-1.542000055E0,9.970950127E0,-3.775950193E0
3.325047644E0,-3.019500077E-1,9.339000702E0,-3.850050211E0
3.327581262E0,-3.600000218E-2,9.135000229E0,-3.472050190E0
3.330114800E0,3.250500262E-1,9.175950050E0,-3.282000065E0
3.332648581E0,8.505000174E-2,8.970000267E0,-3.222000122E0
3.335182199E0,3.079500198E-1,8.728050232E0,-3.397050142E0
3.337715966E0,6.190500259E-1,8.661000252E0,-3.388050079E0
3.340249812E0,6.190500259E-1,8.596050262E0,-3.333000183E0
3.342783411E0,1.054949999E0,8.470050812E0,-3.454950094E0
3.345316949E0,1.309050083E0,8.362050056E0,-3.342000246E0
3.347850716E0,1.144050002E0,8.295000076E0,-3.415950060E0
3.350384334E0,1.134000063E0,8.125050545E0,-3.445050240E0
3.352917990E0,1.257000089E0,7.878000259E0,-3.783000231E0
3.355451607E0,1.180050015E0,7.737000465E0,-3.618000269E0
3.357985375E0,2.308050156E0,7.648050308E0,-3.697050095E0
3.360518992E0,3.067050219E0,8.092950821E0,-3.381000042E0
3.363052755E0,1.537050128E0,8.671050072E0,-3.184050083E0
3.365586373E0,5.790000558E-1,9.135000229E0,-4.105950356E0
3.368120140E0,-1.950000064E-3,9.363000870E0,-4.473000050E0
3.370653757E0,-1.840500087E-1,9.280950546E0,-4.666950226E0
3.373187533E0,-1.530000120E-1,8.841000557E0,-4.903950214E0
3.375721151E0,-3.780000210E-1,9.127950668E0,-5.014050007E0
3.378254918E0,-5.389500260E-1,9.388950348E0,-4.305000305E0
3.380788535E0,-4.380000234E-1,9.310050011E0,-4.256999969E0
3.383322308E0,-2.389500141E-1,9.508950233E0,-4.588050365E0
3.385855925E0,-1.480500102E-1,9.765000343E0,-4.639950275E0
3.388389692E0,1.240500063E-1,9.925950050E0,-4.723950386E0
3.390923310E0,4.710000157E-1,9.964050293E0,-4.755000114E0
3.393456828E0,5.449500084E-1,1.035000038E1,-4.549050331E0
3.395990672E0,5.020500422E-1,1.092000008E1,-4.140000343E0
3.398524442E0,6.529500484E-1,1.092195034E1,-4.164000034E0
3.401058059E0,7.579500079E-1,1.088595009E1,-4.456050396E0
3.403591816E0,6.649500132E-1,1.078095055E1,-4.545000076E0
3.406125357E0,4.950000346E-1,1.061505032E1,-4.626000404E0
3.408658970E0,2.719500065E-1,1.039995003E1,-4.675950050E0
3.411192739E0,1.380000114E-1,1.021800041E1,-4.722000122E0
3.413726609E0,1.159500033E-1,9.904050827E0,-4.719000340E0
3.416260150E0,-1.120500043E-1,9.780000687E0,-4.753050327E0
3.418793994E0,-5.940000415E-1,1.016295052E1,-4.549050331E0
3.421327535E0,-6.780000329E-1,9.934950829E0,-4.506000042E0
3.423861141E0,-9.079500437E-1,9.964050293E0,-4.921050072E0
3.426394908E0,-1.165950060E0,9.978000641E0,-5.047050476E0
3.428928526E0,-1.324050069E0,9.982950211E0,-4.918050289E0
3.431462293E0,-8.959500194E-1,9.862950325E0,-5.068950176E0
3.433995910E0,-9.319500327E-1,9.655050278E0,-4.947000027E0
3.436529677E0,-1.173000097E0,9.516000748E0,-4.675950050E0
3.439063295E0,-1.291050076E0,9.058950424E0,-4.695000172E0
3.441597062E0,-1.663950086E0,9.531000137E0,-4.735949993E0
3.444130659E0,-1.995000124E0,9.657000542E0,-4.032000065E0
3.446664427E0,-1.654950023E0,9.226050377E0,-4.261950016E0
3.449198044E0,-1.468050122E0,8.989050865E0,-4.564050198E0
3.451731811E0,-1.588050127E0,8.461950302E0,-4.410000324E0
3.454265410E0,-2.086050034E0,8.601000786E0,-4.654950142E0
3.456799177E0,-2.064000130E0,9.186000824E0,-4.185000420E0
3.459332794E0,-1.897050142E0,8.920050621E0,-4.141950130E0
3.461866562E0,-1.791000128E0,8.905050278E0,-4.168950081E0
3.464400107E0,-1.588050127E0,8.752050400E0,-4.233000278E0
3.466933720E0,-1.705050111E0,9.271950722E0,-4.315050125E0
3.469467490E0,-1.204950094E0,9.547050476E0,-3.984000206E0
3.472001336E0,-1.116000056E0,9.435000420E0,-4.051050186E0
3.474534967E0,-1.305000067E0,9.348000526E0,-4.288050175E0
3.477068734E0,-1.462950110E0,1.023900032E1,-4.137000084E0
3.479602275E0,-8.209500313E-1,1.014795017E1,-3.679950237E0
3.482135890E0,-8.020500541E-1,1.005705070E1,-3.843000174E0
3.484669653E0,-6.610500216E-1,1.004295063E1,-4.015050411E0
3.487203270E0,-6.799500585E-1,1.056495094E1,-3.751950264E0
3.489737037E0,-4.020000100E-1,1.045005035E1,-3.234000206E0
3.492270655E0,-2.659500241E-1,1.038105011E1,-3.316050053E0
3.494804495E0,-1.219500080E-1,9.934950829E0,-3.439950228E0
3.497338035E0,-5.269500017E-1,1.018905067E1,-3.747000217E0
3.499871802E0,-4.980000257E-1,1.025895023E1,-3.133950233E0
3.502405420E0,-3.450000286E-1,1.006695080E1,-3.072000027E0
3.504939182E0,-3.330000043E-1,9.901950836E0,-3.234000206E0
3.507472799E0,-4.740000367E-1,9.363000870E0,-3.232050180E0
3.510006567E0,-1.111050010E0,9.541950226E0,-3.579000235E0
3.512540184E0,-1.372050047E0,9.205050468E0,-2.995050192E0
3.515074080E0,-1.705050111E0,8.814000130E0,-3.238950253E0
3.517607698E0,-1.914000034E0,8.473950386E0,-3.436050177E0
3.520141465E0,-2.212949991E0,8.182050705E0,-3.502950191E0
3.522675082E0,-2.266050100E0,7.732050419E0,-3.462000132E0
3.525208865E0,-2.584050179E0,7.758000374E0,-3.796950102E0
3.527742482E0,-2.842950106E0,7.938000202E0,-3.226950169E0
3.530276249E0,-2.994000196E0,7.846950531E0,-3.393000126E0
3.532809867E0,-3.007950068E0,7.641000271E0,-3.697050095E0
3.535343610E0,-3.432000160E0,7.416000366E0,-3.864000082E0
3.537877227E0,-3.733950138E0,7.135050297E0,-4.032000065E0
3.540410994E0,-4.201050282E0,7.522950172E0,-4.353000164E0
3.542944535E0,-4.315950394E0,7.509000301E0,-3.831000090E0
3.545478157E0,-4.423050404E0,7.444050312E0,-3.928950071E0
3.548012003E0,-4.318050385E0,7.341000557E0,-3.879000187E0
3.550545544E0,-4.203000069E0,6.958050251E0,-3.970050097E0
3.553079388E0,-4.270050049E0,7.270050526E0,-4.093950272E0
3.555612934E0,-3.966000080E0,7.437000275E0,-3.496050119E0
3.558146701E0,-3.652050257E0,7.621950150E0,-3.643950224E0
3.560680318E0,-3.346050262E0,7.674000263E0,-3.687000275E0
3.563214085E0,-3.087000132E0,7.864050388E0,-3.778050184E0
3.565747698E0,-2.950950146E0,8.194050789E0,-3.349050045E0
3.568281465E0,-2.815950155E0,8.220000267E0,-3.220050097E0
3.570815082E0,-2.602950096E0,8.335050583E0,-3.475950241E0
3.573348850E0,-2.518950224E0,8.461950302E0,-3.475950241E0
3.575882439E0,-2.431050062E0,8.617950439E0,-3.366000175E0
3.578416206E0,-2.290050030E0,8.659049988E0,-3.414000273E0
3.580949824E0,-2.083950043E0,8.656050682E0,-3.412050247E0
3.583483591E0,-2.215050220E0,8.533950806E0,-3.393000126E0
3.586017212E0,-2.512050152E0,8.464950562E0,-3.439950228E0
3.588550980E0,-2.773050070E0,8.271000862E0,-3.553050280E0
3.591084597E0,-2.959950209E0,8.035950661E0,-3.610050201E0
3.593618364E0,-3.199950218E0,7.770000458E0,-3.700950146E0
3.596151973E0,-3.559050083E0,7.495050430E0,-3.727950096E0
3.598685740E0,-3.930000305E0,7.212000370E0,-3.784950256E0
3.601219280E0,-4.303950310E0,6.949050426E0,-3.661050081E0
3.603753124E0,-4.476000309E0,6.775950432E0,-3.643950224E0
3.606286751E0,-4.419000149E0,6.819000244E0,-3.862050295E0
3.608820518E0,-4.336950302E0,6.759000301E0,-4.252050400E0
3.611354135E0,-4.524000168E0,6.690000534E0,-4.279050350E0
3.613887903E0,-4.675050259E0,6.621000290E0,-4.240050316E0
3.616421462E0,-4.632000446E0,6.714000225E0,-4.080000401E0
3.618955076E0,-4.677000046E0,6.594000340E0,-3.963000298E0
3.621488845E0,-4.536000252E0,6.522000313E0,-3.994050264E0
3.624022691E0,-4.107000351E0,6.549000263E0,-3.795000076E0
3.626556318E0,-3.898950100E0,6.697050095E0,-4.027050018E0
3.629090086E0,-2.769000053E0,6.795000553E0,-3.618000269E0
3.631623626E0,-1.843950033E0,7.933050156E0,-2.439000130E0
3.634157241E0,-1.710000038E0,9.001049995E0,-2.752950191E0
3.636690980E0,-2.050050020E0,9.531000137E0,-3.040050030E0
3.639224597E0,-2.644050121E0,1.006005001E1,-3.081000090E0
3.641758364E0,-3.942000151E0,1.055100060E1,-2.980950117E0
3.644291982E0,-6.244050503E0,9.700950623E0,-2.538000107E0
3.646825754E0,-7.390950203E0,7.725000381E0,-4.449000359E0
3.649359371E0,-5.595000267E0,4.779000282E0,-4.858050346E0
3.651893139E0,-3.565950155E0,3.711000204E0,-4.132950306E0
3.654426756E0,-2.887950182E0,4.579950333E0,-3.712950230E0
3.656960518E0,-2.497950077E0,5.310000420E0,-3.309000254E0
3.659494136E0,-2.460000038E0,6.769050121E0,-3.187050104E0
3.662027903E0,-2.328000069E0,7.866000175E0,-3.418950081E0
3.664561520E0,-1.873050094E0,8.308950424E0,-3.852000237E0
3.667095297E0,-1.446000099E0,8.821949959E0,-3.555000067E0
3.669628915E0,-1.068000078E0,9.430050850E0,-3.139050245E0
3.672162682E0,-6.390000582E-1,9.930000305E0,-2.866050243E0
3.674696299E0,-5.340000391E-1,1.001895046E1,-2.478000164E0
3.677230038E0,-7.930500507E-1,1.052700043E1,-3.745050192E0
3.679763578E0,-5.220000148E-1,1.100295067E1,-3.334950209E0
3.682297422E0,-2.850000262E-1,1.114005089E1,-2.911050081E0
3.684830963E0,-2.509500086E-1,1.099905014E1,-2.914050102E0
3.687364768E0,-3.589500189E-1,1.076400089E1,-2.925000191E0
3.689898385E0,-4.140000343E-1,1.060605049E1,-3.009000063E0
3.692432153E0,-5.220000148E-1,1.053405094E1,-2.925000191E0
3.694965693E0,-1.055999994E0,1.037100029E1,-2.431950092E0
3.697499340E0,-1.971000075E0,1.001400089E1,-2.607000113E0
3.700033110E0,-2.287050009E0,9.607050896E0,-3.936000109E0
3.702566727E0,-2.689050198E0,9.319950104E0,-4.525050163E0
3.705100571E0,-2.554950237E0,9.042000771E0,-4.104000092E0
3.707634347E0,-1.879950047E0,8.713950157E0,-4.063050270E0
3.710167886E0,6.070500016E-1,8.508000374E0,-4.019999981E0
3.712701501E0,1.032600021E1,9.193050385E0,-1.242000103E0
3.715235269E0,9.367950439E0,1.187295055E1,5.100000501E-1
3.717768881E0,4.557000160E0,1.377195072E1,-1.213050008E0
3.720302648E0,3.433950186E0,1.357305050E1,-2.548950195E0
3.722836266E0,3.634950161E0,1.230405045E1,-2.334000111E0
3.725370033E0,4.441950321E0,1.089600086E1,-2.626050234E0
3.727903650E0,4.746000290E0,9.673950195E0,-3.055050135E0
3.730437417E0,4.420050144E0,8.934000015E0,-3.222000122E0
3.732971035E0,3.361950159E0,8.407050133E0,-3.229950190E0
3.735504802E0,2.029950142E0,7.954950333E0,-3.213000059E0
3.738038429E0,1.006950021E0,7.567050457E0,-3.234000206E0
3.740572197E0,4.950000346E-1,7.297950268E0,-3.352050066E0
3.743105814E0,5.119500160E-1,7.237950325E0,-3.547950268E0
3.745639581E0,8.350500464E-1,7.318050385E0,-3.682050228E0
3.748173174E0,7.920000553E-1,7.561950207E0,-3.654000282E0
3.750706941E0,5.070000291E-1,7.927950382E0,-3.646050215E0
3.753240558E0,1.810500026E-1,8.314050674E0,-3.891000271E0
3.755774097E0,-1.560000032E-1,8.436000824E0,-3.996000290E0
3.758307961E0,-4.909500182E-1,8.299050331E0,-4.069950104E0
3.760841730E0,-9.390000701E-1,8.149050713E0,-4.429950237E0
3.763375348E0,-1.482000113E0,8.005050659E0,-4.663950443E0
3.765909115E0,-1.915950060E0,8.034000397E0,-4.861050129E0
3.768442722E0,-2.148000002E0,8.043000221E0,-4.924950123E0
3.770976261E0,-2.733000040E0,8.074049950E0,-4.966050148E0
3.773510028E0,-3.039000034E0,8.005050659E0,-5.364000320E0
3.776043645E0,-3.133050203E0,7.962000370E0,-5.596050262E0
3.778577394E0,-3.730950117E0,7.867950439E0,-5.325000286E0
3.781111240E0,-4.876049995E0,7.855950356E0,-5.281950474E0
3.783644780E0,-4.945950031E0,7.653000355E0,-5.746950150E0
3.786178396E0,-4.255949974E0,7.570950508E0,-5.977050304E0
3.788712153E0,-5.700000286E0,7.557000160E0,-5.401950359E0
3.791245770E0,-3.340950251E0,7.389000416E0,-5.977050304E0
3.793779537E0,-1.312050104E0,7.351050377E0,-5.533950329E0
3.796313155E0,-3.075000048E0,7.834950447E0,-4.669050217E0
3.798846946E0,-4.228950024E0,8.128950119E0,-4.687950134E0
3.801380563E0,-4.617000103E0,7.741050243E0,-4.954050064E0
3.803914331E0,-6.361050129E0,7.039950371E0,-4.852950096E0
3.806447948E0,-6.078000069E0,6.361950397E0,-5.766000271E0
3.808981730E0,-2.071950197E0,5.706000328E0,-6.559050083E0
3.811515348E0,-2.064000130E0,5.920950413E0,-4.936950207E0
3.814049115E0,-4.504950047E0,7.027950287E0,-3.880950212E0
3.816582732E0,-6.054000378E0,7.567050457E0,-3.985950232E0
3.819116509E0,-6.451950073E0,7.203000546E0,-4.480050087E0
3.821650126E0,-3.727050066E0,6.534000397E0,-5.529000282E0
3.824183893E0,-5.295000225E-2,6.036000252E0,-4.221000195E0
3.826717511E0,-1.770000100E0,6.706950188E0,-3.211050034E0
3.829251268E0,-4.372950077E0,7.677000523E0,-2.971050024E0
3.831784885E0,-7.150950432E0,8.146050453E0,-3.016950130E0
3.834318424E0,-4.986000061E0,8.005050659E0,-4.903950214E0
3.836852268E0,-3.916050196E0,7.555050373E0,-4.153950214E0
3.839385818E0,-2.939999998E-1,7.753050327E0,-4.477050304E0
3.841919662E0,2.095050097E0,8.047950745E0,-2.362950087E0
3.844453432E0,-4.102950096E0,9.303000450E0,-1.170000076E0
3.846987049E0,-6.780000210E0,1.008405018E1,-2.848950148E0
3.849520607E0,-1.630950093E0,9.310050011E0,-4.033950329E0
3.852054374E0,-2.779500186E-1,8.722949982E0,-2.929950237E0
3.854587991E0,-1.722000122E0,8.893050194E0,-2.887050152E0
3.857121758E0,-2.749500275E-1,9.090000153E0,-3.301950216E0
3.859655362E0,1.004999995E0,9.078000069E0,-1.905000091E0
3.862189129E0,-7.999500632E-1,9.337050438E0,-1.644000053E0
3.864722746E0,-2.068950176E0,9.574050903E0,-2.506050110E0
3.867256514E0,-2.914950132E0,9.327000618E0,-2.937000036E0
3.869790121E0,-3.346050262E0,8.886000633E0,-3.237000227E0
3.872323888E0,-4.219950199E0,8.461950302E0,-3.655950069E0
3.874857506E0,-3.970500231E-1,8.023950577E0,-4.474950314E0
3.877391273E0,1.054949999E0,8.083950043E0,-3.757050276E0
3.879924900E0,-7.450500131E-1,8.686950684E0,-2.935050249E0
3.882458668E0,-2.593950033E0,9.400950432E0,-3.031050205E0
3.884992285E0,-2.325000048E0,9.316950798E0,-3.484050274E0
3.887526052E0,-1.363050103E0,8.756999969E0,-3.792000294E0
3.890059660E0,-1.126049995E0,8.127000809E0,-4.197000027E0
3.892593427E0,-1.393950105E0,8.127000809E0,-4.000950336E0
3.895127044E0,-1.945050120E0,8.082000732E0,-3.436050177E0
3.897660583E0,-2.116950035E0,7.963950157E0,-4.045950413E0
3.900194413E0,-2.188950062E0,7.798950195E0,-4.345950127E0
3.902728182E0,-2.351999998E0,7.516050339E0,-4.200000286E0
3.905261799E0,-2.745000124E0,7.396950245E0,-4.140000343E0
3.907795567E0,-3.049050093E0,7.389000416E0,-4.173000336E0
3.910329198E0,-4.099950314E0,7.416000366E0,-4.140000343E0
3.912862965E0,-2.023950100E0,7.384950161E0,-4.272000313E0
3.915396506E0,-9.120000601E-1,7.294050217E0,-3.951000214E0
3.917930119E0,-3.583050251E0,8.047950745E0,-2.439000130E0
3.920463956E0,-7.747950554E0,8.743050575E0,-2.746050119E0
3.922997726E0,-5.755050182E0,8.323050499E0,-4.923000336E0
3.925531343E0,8.710500598E-1,7.303050518E0,-5.103000164E0
3.928065110E0,-1.363050103E0,7.846950531E0,-2.491950035E0
3.930598737E0,-3.778950214E0,9.037050247E0,-2.317050219E0
3.933132275E0,-2.895000204E-2,9.075000763E0,-3.292050123E0
3.935666042E0,-5.743050098E0,9.157050133E0,-1.801950097E0
3.938199660E0,-7.887000561E0,9.079950333E0,-3.328050137E0
3.940733514E0,-4.632000446E0,8.128950119E0,-5.095050335E0
3.943267054E0,-3.607050180E0,7.519050121E0,-4.153950214E0
3.945800898E0,-6.796950340E0,7.749000549E0,-3.249000072E0
3.948334439E0,-3.559050083E0,7.951950550E0,-4.545000076E0
3.950868292E0,-3.268950224E0,7.867950439E0,-3.246000051E0
3.953401833E0,5.947950363E0,7.810950279E0,-4.273950100E0
3.955935600E0,-4.687050343E0,9.424950600E0,-3.649500310E-1
3.958469217E0,-1.758000135E0,1.037100029E1,-3.627000093E0
3.961003003E0,-2.970000029E0,1.028295040E1,-3.318000078E0
3.963536850E0,-4.930500090E-1,9.636000633E0,-3.891000271E0
3.966070390E0,-3.742950201E0,9.913950920E0,-3.321000099E0
3.968604005E0,-7.153950214E0,9.957000732E0,-4.168950081E0
3.971137745E0,-8.682000160E0,9.279000282E0,-5.127000332E0
3.973671362E0,-2.521950006E0,7.258050442E0,-7.086000443E0
3.976205129E0,3.181950092E0,6.454950333E0,-5.887950420E0
3.978738747E0,-5.155950069E0,8.617950439E0,-2.314950228E0
3.981272518E0,-6.852000237E0,1.008900070E1,-4.683000088E0
3.983806135E0,-9.870000482E-1,9.178050041E0,-5.847000122E0
3.986339903E0,-3.739500046E-1,8.302050591E0,-3.754050255E0
3.988873520E0,-4.995000362E-2,8.480999947E0,-3.912000179E0
3.991407311E0,-2.665950060E0,8.532000542E0,-3.414000273E0
3.993940929E0,7.486050129E0,7.168950558E0,-3.991050243E0
3.996474696E0,2.460000068E-1,8.854949951E0,-7.990500331E-1
3.999008313E0,1.165050030E0,9.775050163E0,-1.908000112E0
4.001542071E0,8.610000610E-1,9.229050636E0,-2.374950171E0
4.004075689E0,-2.184000015E0,9.030000687E0,-2.707950115E0
4.006609456E0,-4.249050140E0,9.484950066E0,-4.153950214E0
4.009143073E0,-4.620000362E0,8.604000092E0,-4.942050457E0
4.011676841E0,-4.231950283E0,7.726950169E0,-4.798050404E0
4.014210458E0,-3.703050137E0,7.447050571E0,-4.513050079E0
4.016744225E0,-3.328950167E0,7.573950291E0,-4.228050232E0
4.019277843E0,-2.626950026E0,7.717050552E0,-3.784950256E0
4.021811619E0,-2.316000223E0,7.878000259E0,-3.277950048E0
4.024345236E0,-2.182049990E0,8.593950272E0,-3.517050266E0
4.026878775E0,-1.981050134E0,9.130949974E0,-3.807000160E0
4.029412619E0,-1.617000103E0,9.022950172E0,-3.766050100E0
4.031946388E0,-1.693050027E0,9.102000237E0,-3.583950281E0
4.034480006E0,-1.984950066E0,9.235950470E0,-3.526950121E0
4.037013773E0,-2.080950022E0,8.850000381E0,-3.433050156E0
4.039547313E0,-2.071950197E0,8.649000168E0,-3.535950184E0
4.042080932E0,-2.064000130E0,8.541000366E0,-3.430950165E0
4.044614678E0,-1.446000099E0,8.170050621E0,-3.220050097E0
4.047148393E0,-1.681050062E0,8.164950371E0,-2.851050138E0
4.049682088E0,-1.366950035E0,8.401950836E0,-2.824950218E0
4.052215932E0,-8.070000410E-1,8.431050301E0,-2.518050194E0
4.054749472E0,-9.550500512E-1,8.434050560E0,-2.548950195E0
4.057283088E0,-9.550500512E-1,8.692049980E0,-2.788950205E0
4.059816865E0,-6.420000196E-1,8.704050064E0,-3.055050135E0
4.062350482E0,-4.810500145E-1,8.789999962E0,-2.680950165E0
4.064884249E0,-3.400500119E-1,9.111000061E0,-2.434950113E0
4.067417867E0,-4.650000334E-1,9.346050262E0,-2.290950060E0
4.069951648E0,-4.669500291E-1,9.337050438E0,-2.248050213E0
4.072485265E0,-5.050500035E-1,9.339000702E0,-2.125950098E0
4.075019033E0,-8.599500656E-1,9.379950523E0,-2.154000044E0
4.077552650E0,-2.116950035E0,9.532950401E0,-1.917000055E0
4.080086417E0,-3.766950130E0,9.516000748E0,-8.610000610E-1
4.082620035E0,-6.679500341E-1,9.211950302E0,-1.692000031E0
4.085153802E0,-2.749500275E-1,8.893050194E0,-4.195050240E0
4.087687419E0,-1.642950058E0,8.232000351E0,-5.256000042E0
4.090221182E0,-1.687950134E0,7.336950302E0,-4.968000412E0
4.092754799E0,-6.705000252E-2,6.798000336E0,-3.475950241E0
4.095288566E0,-8.790000677E-1,7.048950195E0,-2.896950245E0
4.097822184E0,-1.975950122E0,7.648050308E0,-2.956950188E0
4.100355970E0,-2.351999998E0,8.104949951E0,-3.175050259E0
4.102889587E0,-2.610000134E0,8.416950226E0,-3.273000240E0
4.105423354E0,-2.509950161E0,8.577000618E0,-3.211050034E0
4.107956972E0,-2.233950138E0,8.677950859E0,-3.085950136E0
4.110490749E0,-1.921050072E0,8.734950066E0,-2.872950077E0
4.113024366E0,-1.936950088E0,8.671050072E0,-2.213999987E0
4.115558134E0,-2.199000120E0,9.123000145E0,-3.246000051E0
4.118091751E0,-1.767000079E0,9.418050766E0,-3.811950207E0
4.120625537E0,-2.042999983E0,9.241050720E0,-3.250950098E0
4.123159155E0,-1.897050142E0,9.145050049E0,-3.433050156E0
4.125692922E0,-1.606950045E0,9.327000618E0,-3.820950270E0
4.128226539E0,-1.660050035E0,9.484950066E0,-3.879000187E0
4.130760283E0,-1.534950018E0,9.406050682E0,-3.964950085E0
4.133293900E0,-1.339050055E0,9.244950294E0,-4.044000149E0
4.135827667E0,-1.489950061E0,9.162000656E0,-3.936000109E0
4.138361285E0,-1.795950055E0,9.102000237E0,-3.832950115E0
4.140895047E0,-1.930050135E0,9.031949997E0,-3.840000153E0
4.143428664E0,-2.050050020E0,8.938950539E0,-3.994050264E0
4.145962431E0,-2.257950068E0,8.794950485E0,-4.249950409E0
4.148496049E0,-2.124000072E0,8.656050682E0,-4.461000443E0
4.151029578E0,-1.699950099E0,8.464950562E0,-4.351050377E0
4.153563423E0,-1.878000140E0,8.541000366E0,-4.482000351E0
4.156097192E0,-1.957050085E0,8.782950401E0,-4.567950249E0
4.158630809E0,-1.999950051E0,9.018000603E0,-4.294950008E0
4.161164542E0,-2.317950010E0,9.259950638E0,-4.096950054E0
4.163698160E0,-2.380950212E0,9.292950630E0,-4.092000008E0
4.166231927E0,-2.116950035E0,9.241050720E0,-4.019999981E0
4.168765467E0,-2.059950113E0,9.174000740E0,-4.105950356E0
4.171299091E0,-2.179050207E0,9.115950584E0,-4.197000027E0
4.173832860E0,-2.419050217E0,9.037050247E0,-4.185000420E0
4.176366477E0,-2.530950069E0,8.971950531E0,-4.236000061E0
4.178900245E0,-2.709000111E0,8.877000809E0,-4.123050213E0
4.181434095E0,-3.946950197E0,9.444000244E0,-3.579000235E0
4.183967635E0,-3.754950285E0,9.407999992E0,-3.795000076E0
4.186501480E0,-3.037050247E0,9.102000237E0,-4.120950222E0
4.189035020E0,-2.902950048E0,8.994000435E0,-4.240050316E0
4.191568635E0,-2.806950092E0,8.833950043E0,-4.384050369E0
4.194102385E0,-3.091950178E0,8.677950859E0,-4.365000248E0
4.196636002E0,-3.358050108E0,8.563050270E0,-4.300050259E0
4.199169769E0,-3.553950071E0,8.416950226E0,-4.353000164E0
4.201703387E0,-3.880050182E0,8.364000320E0,-4.654950142E0
4.204237154E0,-4.027950287E0,8.292000771E0,-4.789050102E0
4.206770771E0,-4.014000416E0,8.077050209E0,-4.879950047E0
4.209304538E0,-4.143000126E0,8.103000641E0,-4.699950218E0
4.211838156E0,-4.153050423E0,8.191950798E0,-4.565999985E0
4.214371928E0,-4.066950321E0,8.282999992E0,-4.444050312E0
4.216905546E0,-3.946950197E0,8.389950752E0,-4.159049988E0
4.219439313E0,-3.739050150E0,8.484000206E0,-4.009950161E0
4.221972930E0,-3.451050282E0,8.461950302E0,-3.745050192E0
4.224506711E0,-3.837000132E0,8.580000877E0,-3.514950275E0
4.227040329E0,-3.844050169E0,8.620050430E0,-3.487950087E0
4.229574096E0,-3.727050066E0,8.611050606E0,-3.507000208E0
4.232107713E0,-3.837000132E0,8.560950279E0,-3.450000048E0
4.234641486E0,-3.928050280E0,8.493000031E0,-3.310950041E0
4.237175103E0,-4.054950237E0,8.371050835E0,-3.304050207E0
4.239708870E0,-4.318050385E0,8.125050545E0,-3.270000219E0
4.242242488E0,-4.480950356E0,8.077050209E0,-3.352050066E0
4.244776260E0,-4.275000095E0,7.975950241E0,-3.595950127E0
4.247309877E0,-4.351950169E0,7.786950588E0,-3.510000229E0
4.249843645E0,-4.287000179E0,7.618950367E0,-3.250950098E0
4.252377262E0,-4.009050369E0,7.534950256E0,-3.286950111E0
4.254911024E0,-4.063950062E0,7.500000477E0,-3.148050070E0
4.257444642E0,-4.227000237E0,7.456050396E0,-3.048000097E0
4.259978409E0,-4.225049973E0,7.492050171E0,-3.112050056E0
4.262512026E0,-4.375950336E0,7.444050312E0,-3.187050104E0
4.265045745E0,-4.510050297E0,7.408950329E0,-3.073950052E0
4.267579363E0,-4.468950272E0,7.432050228E0,-2.917950153E0
4.270113130E0,-4.416000366E0,7.380000114E0,-2.911050081E0
4.272646747E0,-4.431000233E0,7.255050182E0,-3.073950052E0
4.275180510E0,-4.426050186E0,7.159050465E0,-3.163050175E0
4.277714050E0,-4.368000031E0,7.048950195E0,-3.469050169E0
4.280247894E0,-4.546050072E0,6.922050476E0,-2.856000185E0
4.282781435E0,-4.843050003E0,6.963000298E0,-2.422950029E0
4.285315279E0,-4.684950352E0,7.116000175E0,-2.791050196E0
4.287848819E0,-4.394999981E0,6.988950253E0,-2.961000204E0
4.290382664E0,-3.904050112E0,6.724050522E0,-2.832000017E0
4.292916281E0,-3.997050285E0,7.513950348E0,-2.724000216E0
4.295450048E0,-3.624000072E0,8.082000732E0,-2.509050131E0
4.297983666E0,-3.646950245E0,8.563050270E0,-2.262000084E0
4.300517433E0,-3.717000246E0,8.721000671E0,-1.860000134E0
4.303050973E0,-3.238050222E0,8.817000389E0,-1.869000077E0
4.305584621E0,-2.862000227E0,8.908050537E0,-1.738050103E0
4.308118390E0,-2.464050055E0,8.983950615E0,-1.876050115E0
4.310652236E0,-2.329950094E0,8.950950623E0,-1.987050056E0
4.313185777E0,-2.122050047E0,8.527050018E0,-2.106000185E0
4.315719616E0,-2.110050201E0,8.320950508E0,-2.299950123E0
4.318253156E0,-1.972950101E0,8.315999985E0,-2.449050188E0
4.320786772E0,-1.839000106E0,8.392950058E0,-2.461050034E0
4.323320539E0,-1.650000095E0,8.386050224E0,-2.478000164E0
4.325854156E0,-1.636050105E0,8.517000198E0,-2.698050022E0
4.328387923E0,-1.489950061E0,8.589000702E0,-2.832000017E0
4.330921541E0,-1.389000058E0,8.689949989E0,-2.796000242E0
4.333455308E0,-1.429950118E0,8.806950569E0,-2.917950153E0
4.335988911E0,-1.429950118E0,8.962950706E0,-2.851050138E0
4.338522679E0,-1.144950032E0,9.030000687E0,-2.770050049E0
4.341056296E0,-1.332000017E0,9.159000397E0,-2.989950180E0
4.343590063E0,-1.639950037E0,9.250050545E0,-3.202950239E0
4.346123685E0,-1.633050084E0,9.241050720E0,-3.292050123E0
4.348657452E0,-1.699950099E0,9.147000313E0,-3.481050253E0
4.351191069E0,-1.590000033E0,8.982000351E0,-3.631950140E0
4.353724837E0,-1.453950047E0,9.006000519E0,-3.891000271E0
4.356258488E0,-1.354950070E0,8.974950790E0,-4.176000118E0
4.358792255E0,-1.533000112E0,8.874000549E0,-4.060950279E0
4.361325873E0,-1.561050057E0,8.950950623E0,-3.775950193E0
4.363859640E0,-1.279050112E0,9.123000145E0,-3.916950226E0
4.366393267E0,-1.168950081E0,9.259950638E0,-4.036950111E0
4.368927034E0,-1.351050019E0,9.406050682E0,-4.018050194E0
4.371460652E0,-1.320000052E0,9.550050735E0,-4.030050278E0
4.373994419E0,-1.365000010E0,9.669000626E0,-3.958050251E0
4.376528020E0,-1.365000010E0,9.744000435E0,-3.912000179E0
4.379061788E0,-1.243050098E0,1.001700020E1,-4.161000252E0
4.381595405E0,-1.582950115E0,9.805950165E0,-4.260000229E0
4.384129172E0,-1.855950117E0,9.559050560E0,-3.721050262E0
4.386662766E0,-1.863000035E0,9.423000336E0,-3.558000088E0
4.389196533E0,-1.717050076E0,9.277050018E0,-3.907050133E0
4.391730150E0,-1.626000047E0,9.106950760E0,-4.201950073E0
4.394263918E0,-1.642950058E0,8.910000801E0,-4.228050232E0
4.396797530E0,-1.558950067E0,8.647050858E0,-4.252050400E0
4.399331297E0,-1.417950034E0,8.292000771E0,-4.369950294E0
4.401864915E0,-1.461000085E0,8.035950661E0,-4.557000160E0
4.404398682E0,-1.581000090E0,7.834950447E0,-4.789050102E0
4.406932280E0,-1.837050080E0,7.705050468E0,-4.870050430E0
4.409466047E0,-1.927950144E0,7.629000187E0,-4.774050236E0
4.411999665E0,-1.969050050E0,7.717050552E0,-4.590000153E0
4.414533432E0,-1.870050073E0,7.842000484E0,-4.552050114E0
4.417067044E0,-1.743000031E0,7.987950325E0,-4.482000351E0
4.419600812E0,-1.731000066E0,8.170050621E0,-4.429950237E0
4.422134429E0,-2.040000200E0,8.446050644E0,-4.351050377E0
4.424668196E0,-3.376950264E0,8.890950203E0,-3.958050251E0
4.427201833E0,-4.312950134E0,9.061050415E0,-3.919050217E0
4.429735600E0,-3.481950283E0,8.874000549E0,-3.630000114E0
4.432269217E0,-1.104000092E0,8.752050400E0,-2.985000134E0
4.434802985E0,1.260000020E-1,8.890950203E0,-2.074949980E0
4.437336617E0,-1.522950053E0,9.370050430E0,-2.371950150E0
4.439870384E0,-3.559050083E0,9.817950249E0,-3.667950153E0
4.442403925E0,-2.746950150E0,9.564000130E0,-4.273950100E0
4.444937769E0,-1.363050103E0,8.677950859E0,-3.394950151E0
4.447471275E0,-2.119050026E0,8.424000740E0,-3.550950050E0
4.450005119E0,-3.106050253E0,8.491050720E0,-3.946050167E0
4.452538737E0,-4.936050415E0,8.776050568E0,-4.219050407E0
4.455072504E0,-9.127050400E0,9.364950180E0,-5.092950344E0
4.457606121E0,-5.929950237E0,8.467050552E0,-5.974050522E0
4.460139660E0,-2.986050129E0,7.465950489E0,-4.609050274E0
4.462673427E0,-3.834000111E0,7.591050148E0,-3.484050274E0
4.465207045E0,-5.125050068E0,8.224950790E0,-3.994050264E0
4.467740802E0,-4.423050404E0,8.079000473E0,-4.675950050E0
4.470274648E0,-3.976050138E0,7.509000301E0,-4.245000362E0
4.472808265E0,-5.740950108E0,7.473000526E0,-4.789050102E0
4.475342033E0,-1.140300083E1,8.452950478E0,-5.332050323E0
4.477875660E0,-1.279605103E1,8.568000793E0,-7.933050156E0
4.480409427E0,-4.014000416E0,6.622950077E0,-5.569950104E0
4.482942968E0,-2.677950144E0,5.908950329E0,-3.534000158E0
4.485476581E0,-1.815000057E0,6.498000145E0,-2.736000061E0
4.488010369E0,-2.421000004E0,7.440000534E0,-3.057000160E0
4.490543987E0,-4.573950291E0,7.777050495E0,-4.372050285E0
4.493077754E0,-6.304050446E0,7.906950474E0,-5.149950027E0
4.495611371E0,-7.570950508E0,7.794000149E0,-5.409000397E0
4.498145230E0,-1.145505047E1,7.963950157E0,-5.376000404E0
4.500678771E0,-7.863000393E0,7.072950363E0,-5.602950096E0
4.503212538E0,-5.287950039E0,6.391050339E0,-3.610050201E0
4.505746156E0,-7.141950130E0,6.300000191E0,-3.727950096E0
4.508279918E0,-1.181700039E1,6.733050346E0,-5.107050419E0
4.510813535E0,-1.856100082E1,6.889050484E0,-7.392000198E0
4.513347302E0,-2.918805122E1,6.807000160E0,-1.106895065E1
4.515880920E0,-3.745305252E1,5.926050186E0,-1.629195023E1
4.518414672E0,-2.685495186E1,4.711950302E0,-1.780605125E1
4.520948289E0,-2.077395058E1,6.513000488E0,-1.123395061E1
4.523482057E0,-2.585205078E1,2.179949999E0,-7.390050411E0
4.526015674E0,-1.165200043E1,-2.374050140E0,-6.037050247E0
4.528549446E0,3.970500231E-1,2.889000177E0,5.607000351E0
4.531083064E0,1.951050043E0,5.545050144E0,9.700050354E0
4.533616831E0,3.979950190E0,8.113050461E0,4.873950005E0
4.536150448E0,6.748050213E0,1.108695030E1,2.941050053E0
4.538684227E0,7.761000156E0,1.291905022E1,2.659500241E-1
4.541217844E0,8.355000496E0,1.386300087E1,-2.590050220E0
4.543751688E0,8.977950096E0,1.405005074E1,-2.260050058E0
4.546285229E0,9.100049973E0,1.401405048E1,-3.337050200E0
4.548818991E0,8.509050369E0,1.340595055E1,-2.053950071E0
4.551352608E0,7.603050232E0,1.222005081E1,-6.930000186E-1
4.553886375E0,6.324000359E0,1.109700012E1,-2.929500043E-1
4.556419993E0,4.975950241E0,1.013895035E1,-2.220000178E-1
4.558953755E0,4.048950195E0,9.327000618E0,-3.919500113E-1
4.561487372E0,3.642000198E0,8.814000130E0,-6.810000539E-1
4.564021140E0,3.562950134E0,8.629950523E0,-1.797000051E0
4.566554757E0,4.317000389E0,8.447999954E0,-2.008050203E0
4.569088534E0,5.914950371E0,8.062050819E0,-1.339950085E0
4.571622152E0,7.777950287E0,8.175000191E0,-4.780500233E-1
4.574155919E0,8.595000267E0,8.592000008E0,-1.995000057E-2
4.576689536E0,9.579000473E0,8.944050789E0,7.905000448E-2
4.579223284E0,9.871050835E0,9.328950882E0,7.120500207E-1
4.581756901E0,1.021605015E1,9.586050034E0,2.053050041E0
4.584290668E0,1.049205017E1,1.000005054E1,2.011950016E0
4.586824286E0,9.952950478E0,1.040700054E1,2.374050140E0
4.589358053E0,8.968050003E0,1.080705070E1,3.339000225E0
4.591891670E0,7.468950272E0,1.119300079E1,2.866950035E0
4.594425437E0,6.172950268E0,1.118805027E1,3.279000044E0
4.596959055E0,4.942050457E0,1.096305084E1,2.077050209E0
4.599492793E0,4.107000351E0,1.087395096E1,1.083000064E0
4.602026411E0,3.927000284E0,1.050495052E1,-1.469999999E-1
4.604560178E0,3.727950096E0,9.978000641E0,-1.297050118E0
4.607093795E0,3.678000212E0,9.619050026E0,-2.122950077E0
4.609627582E0,3.856950283E0,9.379950523E0,-1.704000115E0
4.612161200E0,2.164050102E0,8.452950478E0,-1.420950055E0
4.614694967E0,1.843050122E0,8.230050087E0,-2.584950209E0
4.617228584E0,2.215050220E0,8.299050331E0,-2.575950146E0
4.619762342E0,1.876950145E0,8.239950180E0,-2.229000092E0
4.622295959E0,2.049000025E0,8.223000526E0,-2.287950039E0
4.624829726E0,2.218950033E0,8.074049950E0,-2.344050169E0
4.627363344E0,2.410950184E0,8.398050308E0,-2.272050142E0
4.629897087E0,2.521050215E0,8.743050575E0,-1.768950105E0
4.632430704E0,1.656000137E0,8.577000618E0,-1.905000091E0
4.634964243E0,3.850500286E-1,8.460000038E0,-2.916000128E0
4.637498087E0,-4.069500268E-1,8.326050758E0,-3.796950102E0
4.640031861E0,-1.605000019E0,8.043000221E0,-4.045950413E0
4.642565479E0,-2.650950193E0,7.702950478E0,-4.243050098E0
4.645099246E0,-3.528000116E0,7.702950478E0,-4.909050465E0
4.647632863E0,-3.913050175E0,7.497000217E0,-4.648050308E0
4.650166610E0,-4.711050034E0,7.444050312E0,-4.654950142E0
4.652700228E0,-5.191950321E0,7.384950161E0,-4.827000141E0
4.655233995E0,-5.568000317E0,7.270050526E0,-4.972950459E0
4.657767612E0,-6.010950089E0,7.240950108E0,-5.236950397E0
4.660301371E0,-6.397050381E0,7.018050194E0,-4.963950157E0
4.662834988E0,-6.895050526E0,7.023000240E0,-5.179050446E0
4.665368755E0,-7.044000149E0,6.907950401E0,-4.867950439E0
4.667902373E0,-7.093950272E0,6.787950516E0,-4.795950413E0
4.670436154E0,-6.792000294E0,6.700050354E0,-4.875000000E0
4.672969771E0,-6.646050453E0,6.841050148E0,-4.864950180E0
4.675503310E0,-6.246000290E0,7.120950222E0,-4.702950001E0
4.678037154E0,-5.628000259E0,7.392000198E0,-4.678950310E0
4.680570708E0,-5.185050011E0,7.713000298E0,-4.707000256E0
4.683104476E0,-4.641000271E0,8.070000648E0,-4.729050159E0
4.685638322E0,-4.050000191E0,8.449950218E0,-4.627950191E0
4.688171862E0,-3.523050070E0,8.842950821E0,-4.545000076E0
4.690705697E0,-3.019950151E0,9.313050270E0,-4.374000072E0
4.693239238E0,-2.637000084E0,9.753000259E0,-4.212000370E0
4.695772853E0,-2.356950045E0,1.013205051E1,-3.996000290E0
4.698306621E0,-2.019000053E0,1.042095089E1,-3.840000153E0
4.700840471E0,-1.801050067E0,1.063005066E1,-3.711000204E0
4.703374011E0,-1.654950023E0,1.072995090E1,-3.595950127E0
4.705907627E0,-1.462950110E0,1.072605038E1,-3.462000132E0
4.708441471E0,-1.339050055E0,1.061505032E1,-3.325050116E0
4.710975250E0,-1.197000027E0,1.055805016E1,-3.177000046E0
4.713508790E0,-1.060950041E0,1.042605019E1,-2.940000057E0
4.716042406E0,-8.760000467E-1,1.020600033E1,-2.506050110E0
4.718576173E0,-1.363050103E0,9.930000305E0,-1.909950137E0
4.721109800E0,-5.719500184E-1,9.649950027E0,-1.608000040E0
4.723643568E0,1.051050067E0,9.478050232E0,-2.154000044E0
4.726177185E0,1.704000115E0,9.466050148E0,-2.691000223E0
4.728710952E0,2.065950155E0,9.655050278E0,-3.021000147E0
4.731244817E0,2.088000059E0,9.826950073E0,-3.121950150E0
4.733778358E0,2.242950201E0,1.008405018E1,-2.937000036E0
4.736311973E0,2.064000130E0,1.038105011E1,-2.698050022E0
4.738845741E0,1.827000141E0,1.051005077E1,-2.515950203E0
4.741379387E0,1.776000142E0,1.048395061E1,-2.439000130E0
4.743913154E0,1.555950046E0,1.040895081E1,-2.547000170E0
4.746446772E0,1.309050083E0,1.024905014E1,-2.833950043E0
4.748980539E0,1.134000063E0,1.004805088E1,-3.244050264E0
4.751514156E0,8.179500103E-1,9.817950249E0,-3.697050095E0
4.754047923E0,5.950500369E-1,9.586050034E0,-3.939000130E0
4.756581541E0,4.999500215E-1,9.411000252E0,-3.982050180E0
4.759115308E0,3.580500185E-1,9.295950890E0,-3.964950085E0
4.761648944E0,2.719500065E-1,9.211950302E0,-4.008000374E0
4.764182712E0,1.620000005E-1,9.198000908E0,-4.063050270E0
4.766716329E0,1.050000042E-1,9.202050209E0,-4.003050327E0
4.769250096E0,5.205000192E-2,9.291000366E0,-4.024950027E0
4.771783714E0,-1.695000008E-2,9.355950356E0,-4.159049988E0
4.774317481E0,-8.595000207E-2,9.439050674E0,-4.108950138E0
4.776851098E0,-1.600500047E-1,9.459000587E0,-3.955050230E0
4.779384866E0,-3.499500155E-1,9.432000160E0,-4.024950027E0
4.781918502E0,-5.749500394E-1,9.643050194E0,-3.972000122E0
4.784452269E0,-8.239500523E-1,9.661950111E0,-4.045950413E0
4.786985887E0,-1.087050080E0,9.660000801E0,-4.180050373E0
4.789519654E0,-1.312050104E0,9.625950813E0,-4.165950298E0
4.792053300E0,-1.518000126E0,9.589950562E0,-4.233000278E0
4.794587067E0,-1.755000114E0,9.550050735E0,-4.128000259E0
4.797120685E0,-1.750950098E0,9.460950851E0,-3.948000193E0
4.799654452E0,-2.032950163E0,9.360000610E0,-4.060950279E0
4.802188069E0,-2.131050110E0,9.187950134E0,-3.936000109E0
4.804721837E0,-2.199000120E0,9.103950500E0,-3.816000223E0
4.807255454E0,-2.368950129E0,9.030000687E0,-3.772950172E0
4.809789221E0,-2.542950153E0,8.998950005E0,-3.847950220E0
4.812322867E0,-2.637000084E0,8.902950287E0,-3.895050287E0
4.814856634E0,-2.730000019E0,8.890950203E0,-4.003050327E0
4.817390174E0,-2.902950048E0,8.794950485E0,-4.068000317E0
4.819924019E0,-2.953050137E0,8.713950157E0,-4.144950390E0
4.822457650E0,-3.046050072E0,8.674950600E0,-4.125000000E0
4.824991417E0,-3.121050119E0,8.671050072E0,-4.044000149E0
4.827525035E0,-3.061050177E0,8.587050438E0,-3.876000166E0
4.830058802E0,-3.013050079E0,8.596050262E0,-3.715950251E0
4.832592382E0,-2.836050034E0,8.625000000E0,-3.711000204E0
4.835126149E0,-2.656050205E0,8.656050682E0,-3.723000288E0
4.837659767E0,-2.455050230E0,8.674950600E0,-3.715950251E0
4.840193534E0,-2.320950031E0,8.608050346E0,-3.643950224E0
4.842727122E0,-2.196000099E0,8.572050095E0,-3.678000212E0
4.845260890E0,-2.086050034E0,8.497950554E0,-3.571950197E0
4.847794507E0,-1.993050098E0,8.449950218E0,-3.586950064E0
4.850328274E0,-1.843950033E0,8.434050560E0,-3.637050152E0
4.852861892E0,-1.702950120E0,8.388000488E0,-3.643950224E0
4.855395659E0,-1.626000047E0,8.364000320E0,-3.622050285E0
4.857929199E0,-1.518000126E0,8.356950760E0,-3.607950211E0
4.860463044E0,-1.312050104E0,8.340000153E0,-3.598050117E0
4.862996578E0,-1.152000070E0,8.389950752E0,-3.499950171E0
4.865530422E0,-1.042050004E0,8.455050468E0,-3.519000053E0
4.868063963E0,-8.500500321E-1,8.491050720E0,-3.526950121E0
4.870597807E0,-7.210500240E-1,8.545949936E0,-3.514950275E0
4.873131429E0,-5.530500412E-1,8.589000702E0,-3.486000061E0
4.875665196E0,-4.020000100E-1,8.653950691E0,-3.507000208E0
4.878198814E0,-2.970000207E-1,8.709000587E0,-3.472050190E0
4.880732352E0,-2.560500205E-1,8.785950661E0,-3.462000132E0
4.883266105E0,-1.680000126E-1,8.743050575E0,-3.439950228E0
4.885799722E0,-9.300000221E-2,8.755050659E0,-3.498000145E0
4.888333489E0,-3.795000166E-2,8.785950661E0,-3.510000229E0
4.890867335E0,-6.900000572E-2,8.761950493E0,-3.469050169E0
4.893400862E0,1.950000064E-3,8.841000557E0,-3.502950191E0
4.895934706E0,8.295000345E-2,8.929050446E0,-3.502950191E0
4.898468323E0,1.159500033E-1,8.992050171E0,-3.547950268E0
4.901002091E0,1.159500033E-1,8.982000351E0,-3.655950069E0
4.903535698E0,1.120500043E-1,8.962950706E0,-3.651000261E0
4.906069236E0,7.605000585E-2,8.950950623E0,-3.724950075E0
4.908603004E0,1.605000161E-2,9.031949997E0,-3.742050171E0
4.911136621E0,-7.200000435E-2,9.118950844E0,-3.769050121E0
4.913670465E0,-1.510500014E-1,9.211950302E0,-3.919050217E0
4.916204006E0,-2.010000050E-1,9.205050468E0,-3.985950232E0
4.918737850E0,-2.539499998E-1,9.154050827E0,-3.871950150E0
4.921271390E0,-1.890000105E-1,9.097050667E0,-3.951000214E0
4.923805240E0,-2.059500068E-1,9.090000153E0,-3.951000214E0
4.926338780E0,-2.110500038E-1,9.040050507E0,-3.948000193E0
4.928872547E0,-2.749500275E-1,8.971950531E0,-3.802050114E0
4.931406165E0,-3.900000155E-1,8.998950005E0,-3.577050209E0
4.933939919E0,-6.420000196E-1,9.058950424E0,-3.505050182E0
4.936473536E0,-7.969500422E-1,9.163949966E0,-3.703950167E0
4.939007303E0,-8.620500565E-1,9.238050461E0,-3.724950075E0
4.941540921E0,-6.390000582E-1,9.103950500E0,-4.129950047E0
4.944074668E0,-5.269500017E-1,9.046950340E0,-3.577050209E0
4.946608514E0,-6.010500193E-1,9.135000229E0,-3.519000053E0
4.949142055E0,-3.540000021E-1,9.123000145E0,-3.615000248E0
4.951675670E0,-1.080000028E-1,9.034950256E0,-3.622050285E0
4.954209423E0,1.570500135E-1,8.944050789E0,-3.711000204E0
4.956743041E0,5.190000534E-1,8.764050484E0,-3.912000179E0
4.959276808E0,4.570500255E-1,8.563050270E0,-3.357000113E0
4.961810425E0,4.950000346E-1,8.580000877E0,-3.217950106E0
4.964344193E0,5.400000215E-1,8.508000374E0,-3.433050156E0
4.966877810E0,3.610500097E-1,8.449950218E0,-3.601050138E0
4.969411577E0,1.429500133E-1,8.601000786E0,-3.570000172E0
4.971945195E0,3.000000119E-2,8.814000130E0,-3.526950121E0
4.974478938E0,-1.440000087E-1,9.102000237E0,-3.574950218E0
4.977012555E0,-5.170500278E-1,9.322050095E0,-3.649050236E0
4.979546322E0,-6.589500308E-1,9.379950523E0,-3.730050087E0
4.982079940E0,-6.990000606E-1,9.430050850E0,-3.723000288E0
4.984613702E0,-6.919500232E-1,9.234000206E0,-3.574950218E0
4.987147320E0,-1.720500141E-1,8.368950844E0,-4.003050327E0
4.989681087E0,1.027050018E0,6.946050167E0,-4.084949970E0
4.992214704E0,6.750000119E-1,6.949050426E0,-3.478950262E0
4.994748548E0,-3.850500286E-1,8.010000229E0,-2.527950048E0
4.997282089E0,-1.636050105E0,9.460950851E0,-1.876050115E0
4.999815856E0,-2.056950092E0,1.061295033E1,-2.290950060E0
5.002349473E0,-1.939950109E0,1.124505043E1,-3.141000032E0
5.004883265E0,-1.540050030E0,1.094595051E1,-3.570000172E0
5.007416882E0,-1.189950109E0,1.009095001E1,-3.618000269E0
5.009950649E0,-1.036949992E0,9.126000404E0,-3.376050234E0
5.012484267E0,-1.175999999E0,8.440950394E0,-3.309000254E0
5.015018024E0,-1.327050090E0,8.083950043E0,-3.238950253E0
5.017551641E0,-1.516050100E0,8.023950577E0,-3.268050194E0
5.020085409E0,-1.621050119E0,8.155950546E0,-3.328050137E0
5.022619026E0,-1.636050105E0,8.307000160E0,-3.415950060E0
5.025152793E0,-1.480050087E0,8.443050385E0,-3.445050240E0
5.027686411E0,-1.315050006E0,8.560950279E0,-3.442950249E0
5.030220178E0,-1.252050042E0,8.686950684E0,-3.400050163E0
5.032753795E0,-1.165950060E0,8.802000046E0,-3.385050058E0
5.035287557E0,-1.129950047E0,8.866950035E0,-3.358950138E0
5.037821175E0,-1.080000043E0,8.890950203E0,-3.376050234E0
5.040354942E0,-1.057950020E0,8.889000893E0,-3.358950138E0
5.042888555E0,-1.063050032E0,8.794950485E0,-3.378000259E0
5.045422276E0,-1.063050032E0,8.652000427E0,-3.376050234E0
5.047955983E0,-1.104000092E0,8.557950020E0,-3.330000162E0
5.050502630E0,-1.129950047E0,8.512949944E0,-3.357000113E0
5.053023325E0,-1.138050079E0,8.484000206E0,-3.256050110E0
5.055557092E0,-1.221000075E0,8.470050812E0,-3.193950176E0
5.058090707E0,-1.273950100E0,8.479050636E0,-3.160050154E0
5.060624477E0,-1.353000045E0,8.509950638E0,-3.115050077E0
5.063158092E0,-1.462950110E0,8.560950279E0,-3.165000200E0
5.065691861E0,-1.554000020E0,8.635050774E0,-3.181950092E0
5.068225479E0,-1.588050127E0,8.674950600E0,-3.151050091E0
5.070759250E0,-1.618950129E0,8.701950073E0,-3.169950247E0
5.073292867E0,-1.582950115E0,8.737950325E0,-3.160050154E0
5.075826634E0,-1.678950071E0,8.692049980E0,-3.244050264E0
5.078360252E0,-1.753050089E0,8.635050774E0,-3.345000267E0
5.080894034E0,-1.873050094E0,8.587050438E0,-3.405000210E0
5.083427651E0,-1.947000146E0,8.488950729E0,-3.414000273E0
5.085961419E0,-1.858050108E0,8.386050224E0,-3.478950262E0
5.088495036E0,-1.975950122E0,8.275950432E0,-3.421050072E0
5.091028798E0,-2.083950043E0,8.292000771E0,-3.439950228E0
5.093562416E0,-2.074050188E0,8.260950089E0,-3.595950127E0
5.096096183E0,-2.131050110E0,8.251950264E0,-3.658050060E0
5.098629800E0,-2.035950184E0,8.275950432E0,-3.613050222E0
5.101163568E0,-1.849050045E0,8.227950096E0,-3.541050196E0
5.103697185E0,-1.770000100E0,8.371050835E0,-3.493050098E0
5.106230952E0,-1.593000054E0,8.458050728E0,-3.484050274E0
5.108764570E0,-1.303050041E0,8.443050385E0,-3.478950262E0
5.111298346E0,-1.066050053E0,8.443050385E0,-3.409050226E0
5.113831963E0,-9.289500713E-1,8.476950645E0,-3.439950228E0
5.116365730E0,-8.140500188E-1,8.524950027E0,-3.475950241E0
5.118899348E0,-7.450500131E-1,8.604000092E0,-3.499950171E0
5.121433106E0,-6.510000229E-1,8.697000504E0,-3.390000105E0
5.123966723E0,-5.839500427E-1,8.833950043E0,-3.136050224E0
5.126500491E0,-6.559500098E-1,9.019950867E0,-3.085950136E0
5.129034108E0,-8.119500279E-1,9.130949974E0,-3.258000135E0
5.131567875E0,-8.449500203E-1,9.175950050E0,-3.405000210E0
5.134101493E0,-8.760000467E-1,9.195000648E0,-3.457050085E0
5.136635260E0,-8.980500698E-1,9.114000320E0,-3.484050274E0
5.139168877E0,-8.980500698E-1,8.970000267E0,-3.498000145E0
5.141702659E0,-7.590000629E-1,8.833950043E0,-3.364050150E0
5.144236276E0,-6.730500460E-1,8.704050064E0,-3.232050180E0
5.146770043E0,-5.440500379E-1,8.641950607E0,-3.175050259E0
5.149303661E0,-4.240500331E-1,8.674950600E0,-3.190950155E0
5.151837218E0,-7.905000448E-2,8.713950157E0,-2.739000082E0
5.154370985E0,3.610500097E-1,8.515049934E0,-1.809000134E0
5.156904831E0,1.378950119E0,7.794000149E0,-2.679000139E0
5.159438449E0,1.101000071E0,7.935000420E0,-3.321000099E0
5.161972235E0,2.839500010E-1,8.437950134E0,-3.424050093E0
5.164505852E0,-1.650000066E-1,8.517000198E0,-3.414000273E0
5.167039620E0,-4.600500166E-1,8.572050095E0,-3.394950151E0
5.169573237E0,-7.879500389E-1,8.652000427E0,-3.409050226E0
5.172106762E0,-8.760000467E-1,8.743050575E0,-3.582000256E0
5.174640529E0,-8.209500313E-1,8.845950127E0,-3.511950254E0
5.177174375E0,-1.081950068E0,8.860050201E0,-3.469050169E0
5.179707915E0,-1.036949992E0,8.917050362E0,-3.594000101E0
5.182241774E0,-1.032000065E0,8.944050789E0,-3.559950113E0
5.184775314E0,-1.069950104E0,8.893050194E0,-3.754050255E0
5.187309158E0,-9.889500737E-1,8.842950821E0,-3.976950169E0
5.189842776E0,-1.055999994E0,8.756999969E0,-4.288050175E0
5.192376563E0,-9.480000734E-1,8.722949982E0,-4.357950211E0
5.194910103E0,-9.409500360E-1,8.793000221E0,-4.318950176E0
5.197443717E0,-1.042050004E0,8.938950539E0,-4.345950127E0
5.199977486E0,-1.197000027E0,9.078000069E0,-4.405950069E0
5.202511112E0,-1.293000102E0,9.111000061E0,-4.441950321E0
5.205044880E0,-1.339050055E0,9.151950836E0,-4.518000126E0
5.207578726E0,-1.462950110E0,9.169050217E0,-4.542000294E0
5.210112343E0,-1.585050106E0,9.214050293E0,-4.532999992E0
5.212646129E0,-1.678950071E0,9.286050797E0,-4.657050133E0
5.215179670E0,-1.803000093E0,9.322050095E0,-4.765050411E0
5.217713285E0,-1.627950072E0,9.241050720E0,-4.633050442E0
5.220247052E0,-1.501950026E0,9.223950386E0,-4.710000038E0
5.222780651E0,-1.393950105E0,9.231000900E0,-4.794000149E0
5.225314418E0,-1.498950124E0,9.289050102E0,-4.777050018E0
5.227848035E0,-1.554000020E0,9.202050209E0,-4.789050102E0
5.230381880E0,-1.354950070E0,9.001049995E0,-4.755000114E0
5.232915425E0,-1.231050014E0,8.874000549E0,-4.639950275E0
5.235449269E0,-2.083950043E0,9.006000519E0,-4.852950096E0
5.237982810E0,-2.111999989E0,8.982000351E0,-4.687950134E0
5.240516577E0,-1.521000028E0,8.830950737E0,-4.711950302E0
5.243050204E0,-2.143050194E0,8.950950623E0,-5.092950344E0
5.245583972E0,-2.836050034E0,8.970000267E0,-5.275050163E0
5.248117589E0,-1.830000043E0,8.673000336E0,-5.068950176E0
5.250651356E0,-2.292000055E0,8.836050034E0,-5.149950027E0
