"Time (s)","Gyroscope x (rad/s)","Gyroscope y (rad/s)","Gyroscope z (rad/s)"
3.632888000E-2,-2.089999989E-2,-8.566249907E-2,2.186249942E-2
3.885980200E-2,-2.626249939E-2,-8.676250279E-2,2.406249940E-2
4.139354900E-2,-3.162499890E-2,-8.992499858E-2,2.516249940E-2
4.392406500E-2,-3.904999793E-2,-8.882500231E-2,2.516249940E-2
4.645361200E-2,-4.427500069E-2,-8.043749630E-2,1.979999989E-2
4.903301100E-2,-4.963750020E-2,-7.617499679E-2,1.127499994E-2
5.152832100E-2,-5.926249921E-2,-6.655000150E-2,2.749999985E-3
5.406193400E-2,-6.984999776E-2,-5.266249925E-2,-3.574999981E-3
5.659570300E-2,-7.947500050E-2,-4.207500070E-2,-1.113750041E-2
5.912937400E-2,-8.799999952E-2,-2.612499893E-2,-2.172499895E-2
6.166314300E-2,-9.652499855E-2,-7.974999957E-3,-2.708750032E-2
6.419675800E-2,-1.071124971E-1,6.874999963E-3,-3.341250122E-2
6.673029900E-2,-1.145374998E-1,2.172499895E-2,-3.987500072E-2
6.926405900E-2,-1.187999994E-1,2.928750031E-2,-4.826249927E-2
7.179767600E-2,-1.167374998E-1,3.451250121E-2,-5.156249925E-2
7.433152000E-2,-1.178374961E-1,3.671250120E-2,-5.582499877E-2
7.686506100E-2,-1.145374998E-1,3.244999796E-2,-6.435000151E-2
7.939882500E-2,-1.093124971E-1,3.024999984E-2,-6.861250103E-2
8.193244300E-2,-1.060125008E-1,3.135000169E-2,-7.067500055E-2
8.446621000E-2,-1.028499976E-1,3.451250121E-2,-7.273750007E-2
8.699982700E-2,-9.858749807E-2,3.561250120E-2,-7.493750006E-2
8.953359200E-2,-8.910000324E-2,3.561250120E-2,-7.493750006E-2
9.206721000E-2,-8.057499677E-2,2.928750031E-2,-7.177499682E-2
9.460097700E-2,-6.984999776E-2,2.598750032E-2,-6.641250104E-2
9.713459400E-2,-6.462500244E-2,2.076249942E-2,-6.435000151E-2
9.966838800E-2,-5.389999971E-2,1.223750040E-2,-5.898749828E-2
1.022019280E-1,-3.795000166E-2,2.612499986E-3,-5.678749830E-2
1.047357720E-1,-2.832499892E-2,-3.712499980E-3,-5.472499877E-2
1.072693900E-1,-1.773750037E-2,-7.974999957E-3,-5.472499877E-2
1.098029500E-1,-8.112499490E-3,-1.443750039E-2,-5.156249925E-2
1.123367170E-1,1.374999993E-3,-1.333750039E-2,-5.046249926E-2
1.148703350E-1,9.899999946E-3,-1.869999990E-2,-4.826249927E-2
1.174041020E-1,1.732499897E-2,-1.759999990E-2,-4.619999975E-2
1.199377510E-1,2.062499896E-2,-1.333750039E-2,-3.987500072E-2
1.224715190E-1,1.952499896E-2,-1.333750039E-2,-3.231250122E-2
1.250051360E-1,2.158750035E-2,-1.113750041E-2,-3.135000169E-2
1.275389030E-1,2.158750035E-2,-7.012499962E-3,-3.135000169E-2
1.300724920E-1,1.952499896E-2,-5.912499968E-3,-3.024999984E-2
1.326063360E-1,2.268750034E-2,-1.649999991E-3,-3.231250122E-2
1.351399530E-1,1.952499896E-2,-5.499999970E-4,-3.135000169E-2
1.376737210E-1,1.842499897E-2,5.499999970E-4,-3.135000169E-2
1.402072540E-1,1.636249945E-2,-3.712499980E-3,-3.231250122E-2
1.427408670E-1,1.636249945E-2,-7.012499962E-3,-2.804999985E-2
1.452746370E-1,1.526249945E-2,-1.017499994E-2,-3.024999984E-2
1.478082540E-1,1.416249946E-2,-1.223750040E-2,-3.135000169E-2
1.503420400E-1,1.306249946E-2,-1.333750039E-2,-3.024999984E-2
1.528756580E-1,1.636249945E-2,-1.539999992E-2,-2.598750032E-2
1.554094250E-1,1.526249945E-2,-2.186249942E-2,-2.598750032E-2
1.579430420E-1,1.306249946E-2,-2.502499893E-2,-2.708750032E-2
1.604768280E-1,1.209999993E-2,-3.355000168E-2,-2.598750032E-2
1.630104450E-1,1.306249946E-2,-3.781250119E-2,-2.804999985E-2
1.655442120E-1,1.416249946E-2,-4.097500071E-2,-2.914999984E-2
1.680778300E-1,1.416249946E-2,-4.743750021E-2,-2.708750032E-2
1.706115960E-1,1.099999994E-2,-5.486249924E-2,-2.378750034E-2
1.731452130E-1,1.099999994E-2,-6.022499874E-2,-1.966249943E-2
1.756787520E-1,8.937500417E-3,-6.338749826E-2,-1.539999992E-2
1.782125190E-1,4.674999975E-3,-6.228749827E-2,-1.113750041E-2
1.807461410E-1,-1.787499990E-3,-5.692499876E-2,-1.209999993E-2
1.832799090E-1,-2.887499984E-3,-4.839999974E-2,-1.319999993E-2
1.858135260E-1,-6.049999967E-3,-4.097500071E-2,-1.746249944E-2
1.883472930E-1,-1.347499993E-2,-3.355000168E-2,-2.914999984E-2
1.908809060E-1,-1.883750036E-2,-3.038750030E-2,-3.561250120E-2
1.934146730E-1,-2.626249939E-2,-2.612499893E-2,-3.987500072E-2
1.959482900E-1,-3.588749841E-2,-2.502499893E-2,-3.987500072E-2
1.984820570E-1,-3.684999794E-2,-2.296249941E-2,-4.193750024E-2
2.010156800E-1,-4.111250117E-2,-2.392499894E-2,-4.083750024E-2
2.035494470E-1,-4.427500069E-2,-2.186249942E-2,-4.193750024E-2
2.060829870E-1,-4.331250116E-2,-1.869999990E-2,-4.303750023E-2
2.086168320E-1,-4.111250117E-2,-1.333750039E-2,-4.083750024E-2
2.111503860E-1,-4.331250116E-2,-1.443750039E-2,-4.303750023E-2
2.136840020E-1,-4.427500069E-2,-1.113750041E-2,-4.413750023E-2
2.162177690E-1,-4.427500069E-2,-1.017499994E-2,-4.509999976E-2
2.187513860E-1,-4.427500069E-2,-1.017499994E-2,-4.509999976E-2
2.212851240E-1,-3.904999793E-2,-7.974999957E-3,-4.509999976E-2
2.238187420E-1,-3.684999794E-2,-7.012499962E-3,-5.046249926E-2
2.263525090E-1,-3.478749841E-2,-7.974999957E-3,-5.252499878E-2
2.288861260E-1,-3.478749841E-2,-1.223750040E-2,-5.252499878E-2
2.314198990E-1,-3.052499890E-2,-1.223750040E-2,-5.156249925E-2
2.339535160E-1,-2.832499892E-2,-1.223750040E-2,-5.156249925E-2
2.364872830E-1,-2.309999987E-2,-1.333750039E-2,-4.936249927E-2
2.390209010E-1,-1.553750038E-2,-1.649999991E-2,-4.619999975E-2
2.415546630E-1,-8.112499490E-3,-1.649999991E-2,-3.987500072E-2
2.440882800E-1,-1.787499990E-3,-2.076249942E-2,-3.135000169E-2
2.466218190E-1,1.374999993E-3,-2.502499893E-2,-2.914999984E-2
2.491555860E-1,4.674999975E-3,-2.818750031E-2,-2.282499894E-2
2.516892030E-1,7.837500423E-3,-2.502499893E-2,-1.429999992E-2
2.542229710E-1,9.899999946E-3,-2.296249941E-2,-1.113750041E-2
2.567568170E-1,1.416249946E-2,-2.186249942E-2,-5.774999969E-3
2.592903570E-1,1.636249945E-2,-1.539999992E-2,-3.574999981E-3
2.618239880E-1,1.732499897E-2,-7.974999957E-3,1.649999991E-3
2.643577550E-1,1.732499897E-2,-2.749999985E-3,4.949999973E-3
2.668913720E-1,2.062499896E-2,2.612499986E-3,4.949999973E-3
2.694251390E-1,2.158750035E-2,6.874999963E-3,5.912499968E-3
2.719587520E-1,2.378750034E-2,9.074999951E-3,3.849999979E-3
2.744925190E-1,2.062499896E-2,9.074999951E-3,1.649999991E-3
2.770260600E-1,2.268750034E-2,1.113750041E-2,3.849999979E-3
2.795596730E-1,2.378750034E-2,1.429999992E-2,3.849999979E-3
2.820934230E-1,2.378750034E-2,1.429999992E-2,3.849999979E-3
2.846272690E-1,2.158750035E-2,1.856249943E-2,2.749999985E-3
2.871608100E-1,2.158750035E-2,1.539999992E-2,1.649999991E-3
2.896944250E-1,1.732499897E-2,1.429999992E-2,-2.612499986E-3
2.922281720E-1,1.842499897E-2,1.649999991E-2,-4.674999975E-3
2.947617900E-1,1.842499897E-2,1.539999992E-2,-5.774999969E-3
2.972955570E-1,1.526249945E-2,1.746249944E-2,-1.003750041E-2
2.998291740E-1,1.952499896E-2,1.333750039E-2,-1.209999993E-2
3.023629570E-1,1.842499897E-2,1.113750041E-2,-1.319999993E-2
3.048965740E-1,2.062499896E-2,6.874999963E-3,-1.209999993E-2
3.074303410E-1,1.732499897E-2,-1.649999991E-3,-1.539999992E-2
3.099638820E-1,2.062499896E-2,-2.749999985E-3,-1.746249944E-2
3.124975090E-1,2.158750035E-2,-4.812499974E-3,-1.746249944E-2
3.150313550E-1,2.268750034E-2,-7.012499962E-3,-1.856249943E-2
3.175651250E-1,2.584999986E-2,-7.974999957E-3,-2.062499896E-2
3.200986650E-1,2.488750033E-2,-1.333750039E-2,-2.488750033E-2
3.226322660E-1,2.268750034E-2,-2.186249942E-2,-2.598750032E-2
3.251660340E-1,2.584999986E-2,-3.038750030E-2,-2.914999984E-2
3.276996510E-1,2.804999985E-2,-3.355000168E-2,-3.135000169E-2
3.302334180E-1,3.231250122E-2,-3.671250120E-2,-2.708750032E-2
3.327670690E-1,3.547500074E-2,-4.413750023E-2,-2.598750032E-2
3.353008360E-1,4.179999977E-2,-5.266249925E-2,-2.488750033E-2
3.378344530E-1,4.606249928E-2,-6.022499874E-2,-2.378750034E-2
3.403682210E-1,5.032499880E-2,-6.338749826E-2,-2.172499895E-2
3.429018570E-1,5.252499878E-2,-5.692499876E-2,-1.636249945E-2
3.454356240E-1,5.362499878E-2,-5.486249924E-2,-1.429999992E-2
3.479692420E-1,5.568749830E-2,-5.486249924E-2,-1.003750041E-2
3.505030090E-1,6.104999781E-2,-4.949999973E-2,-8.937500417E-3
3.530365580E-1,6.847500056E-2,-4.207500070E-2,-1.003750041E-2
3.555701720E-1,7.383749634E-2,-3.891250119E-2,-1.209999993E-2
3.581039410E-1,7.479999959E-2,-3.464999795E-2,-1.003750041E-2
3.606377870E-1,7.699999958E-2,-2.722499892E-2,-7.837500423E-3
3.631713330E-1,8.552499861E-2,-2.722499892E-2,-4.674999975E-3
3.657049480E-1,9.075000137E-2,-3.148749843E-2,-1.512499992E-3
3.682387150E-1,9.831249714E-2,-3.244999796E-2,6.874999963E-4
3.707723330E-1,1.025749967E-1,-3.148749843E-2,3.849999979E-3
3.733061050E-1,1.120624989E-1,-3.244999796E-2,7.012499962E-3
3.758397220E-1,1.194875017E-1,-3.464999795E-2,7.012499962E-3
3.783734890E-1,1.291124970E-1,-3.781250119E-2,3.849999979E-3
3.809071070E-1,1.387374997E-1,-3.891250119E-2,-4.674999975E-3
3.834409080E-1,1.482249945E-1,-4.523750022E-2,-1.209999993E-2
3.859744490E-1,1.600500047E-1,-5.376249924E-2,-2.062499896E-2
3.885080620E-1,1.727000028E-1,-6.022499874E-2,-3.135000169E-2
3.910419080E-1,1.854874939E-1,-6.971249729E-2,-3.767500073E-2
3.935754390E-1,2.014375031E-1,-8.566249907E-2,-4.193750024E-2
3.961092060E-1,2.132624984E-1,-9.844999760E-2,-4.729999974E-2
3.986428230E-1,2.249500006E-1,-1.049124971E-1,-5.252499878E-2
4.011765900E-1,2.377374917E-1,-1.112374961E-1,-5.252499878E-2
4.037102080E-1,2.525874972E-1,-1.186624989E-1,-5.252499878E-2
4.062439750E-1,2.642749846E-1,-1.208624989E-1,-5.252499878E-2
4.087775920E-1,2.770625055E-1,-1.101374999E-1,-4.936249927E-2
4.113113600E-1,2.898499966E-1,-9.308750182E-2,-4.413750023E-2
4.138450010E-1,3.026374876E-1,-6.971249729E-2,-3.657500073E-2
4.163787680E-1,3.111625016E-1,-4.097500071E-2,-3.341250122E-2
4.189123090E-1,3.174875081E-1,-1.223750040E-2,-2.708750032E-2
4.214461530E-1,3.280749917E-1,1.746249944E-2,-1.966249943E-2
4.239796790E-1,3.356375098E-1,4.619999975E-2,-1.209999993E-2
4.265132950E-1,3.462249935E-1,7.067500055E-2,-2.612499986E-3
4.290470620E-1,3.536500037E-1,1.005124971E-1,2.749999985E-3
4.315806790E-1,3.525500000E-1,1.366750002E-1,1.333750039E-2
4.341144470E-1,3.451249897E-1,1.728374958E-1,2.516249940E-2
4.366480640E-1,3.302749991E-1,2.069374919E-1,3.464999795E-2
4.391818310E-1,3.068999946E-1,2.441999912E-1,3.575000167E-2
4.417154490E-1,2.781625092E-1,2.655124962E-1,3.148749843E-2
4.442492110E-1,2.472250015E-1,2.686749995E-1,2.832499892E-2
4.467828280E-1,2.259124964E-1,2.761000097E-1,2.186249942E-2
4.493165960E-1,2.079000026E-1,2.920500040E-1,1.017499994E-2
4.518502130E-1,1.993750036E-1,3.005749881E-1,-3.574999981E-3
4.543839750E-1,1.919499934E-1,3.027749956E-1,-1.429999992E-2
4.569175930E-1,1.812250018E-1,2.899875045E-1,-2.378750034E-2
4.594511310E-1,1.663749963E-1,2.675749958E-1,-3.987500072E-2
4.619848980E-1,1.472624987E-1,2.303124964E-1,-5.156249925E-2
4.645185060E-1,1.205874979E-1,1.835625023E-1,-6.957499683E-2
4.670522730E-1,8.978749812E-2,1.399749964E-1,-8.882500231E-2
4.695858900E-1,6.104999781E-2,9.418749809E-2,-1.111000031E-1
4.721196580E-1,4.179999977E-2,4.619999975E-2,-1.324124932E-1
4.746532650E-1,2.584999986E-2,5.774999969E-3,-1.494625062E-1
4.771870320E-1,2.694999985E-2,-3.038750030E-2,-1.611499935E-1
4.797206500E-1,3.437500075E-2,-6.435000151E-2,-1.674750000E-1
4.822544170E-1,4.716249928E-2,-9.418749809E-2,-1.707749963E-1
4.847880590E-1,6.104999781E-2,-1.197625026E-1,-1.739374995E-1
4.873218260E-1,7.383749634E-2,-1.399749964E-1,-1.707749963E-1
4.898554440E-1,9.295000136E-2,-1.538625062E-1,-1.739374995E-1
4.923889820E-1,1.131625026E-1,-1.687124968E-1,-1.771000028E-1
4.949227440E-1,1.291124970E-1,-1.803999990E-1,-1.845249981E-1
4.974563620E-1,1.450625062E-1,-1.911250055E-1,-1.824624985E-1
4.999902060E-1,1.578499973E-1,-1.985500008E-1,-1.813624948E-1
5.025237470E-1,1.737999916E-1,-1.878249943E-1,-1.845249981E-1
5.050574900E-1,1.845249981E-1,-1.815000027E-1,-1.867250055E-1
5.075911070E-1,1.887875050E-1,-2.080374956E-1,-1.909874976E-1
5.101248740E-1,1.845249981E-1,-2.484624982E-1,-2.026749998E-1
5.126584920E-1,1.962125003E-1,-2.080374956E-1,-2.143625021E-1
5.151922680E-1,2.249500006E-1,-1.314499974E-1,-2.143625021E-1
5.177258850E-1,2.323749959E-1,-8.470000327E-2,-2.089999914E-1
5.202596530E-1,2.164250016E-1,-6.118749827E-2,-2.047374994E-1
5.227931930E-1,1.951124966E-1,-4.743750021E-2,-1.941500008E-1
5.253270520E-1,1.737999916E-1,-4.207500070E-2,-1.782000065E-1
5.278605930E-1,1.600500047E-1,-3.891250119E-2,-1.600500047E-1
5.303944370E-1,1.493249983E-1,-3.464999795E-2,-1.472624987E-1
5.329279770E-1,1.450625062E-1,-3.671250120E-2,-1.366750002E-1
5.354616020E-1,1.450625062E-1,-3.355000168E-2,-1.281500012E-1
5.379953690E-1,1.439625025E-1,-3.987500072E-2,-1.292500049E-1
5.405289860E-1,1.482249945E-1,-5.486249924E-2,-1.377750039E-1
5.430627540E-1,1.439625025E-1,-6.544999778E-2,-1.600500047E-1
5.455963470E-1,1.407999992E-1,-9.955000132E-2,-2.292124927E-1
5.481301140E-1,1.355749965E-1,-2.208250016E-1,-3.037374914E-1
5.506637320E-1,1.387374997E-1,-3.229874969E-1,-3.463625014E-1
5.531974990E-1,1.472624987E-1,-3.016749918E-1,-3.654749990E-1
5.557311450E-1,1.621125042E-1,-2.475000024E-1,-3.793624938E-1
5.582649120E-1,1.706375033E-1,-2.410375029E-1,-4.005374908E-1
5.607985300E-1,1.748999953E-1,-2.358125001E-1,-4.250124991E-1
5.633322970E-1,1.834249943E-1,-2.091374993E-1,-4.452250004E-1
5.658658380E-1,1.962125003E-1,-2.197249979E-1,-4.633750021E-1
5.683994510E-1,2.259124964E-1,-2.506625056E-1,-4.750624895E-1
5.709332200E-1,2.494249940E-1,-2.825624943E-1,-4.729999900E-1
5.734670660E-1,2.408999950E-1,-3.389374912E-1,-4.654375017E-1
5.760005830E-1,2.270125002E-1,-3.591499925E-1,-4.537499845E-1
5.785341980E-1,2.292124927E-1,-3.379749954E-1,-4.303750098E-1
5.810679650E-1,2.344374955E-1,-3.315125108E-1,-4.175874889E-1
5.836015830E-1,2.366375029E-1,-3.283500075E-1,-4.079625010E-1
5.861353590E-1,2.344374955E-1,-3.209249973E-1,-4.038375020E-1
5.886689760E-1,2.312749922E-1,-3.240875006E-1,-4.047999978E-1
5.912027440E-1,2.270125002E-1,-3.283500075E-1,-4.047999978E-1
5.937363610E-1,2.164250016E-1,-3.379749954E-1,-4.059000015E-1
5.962701480E-1,2.036374956E-1,-3.485625088E-1,-4.016374946E-1
5.988036890E-1,1.865874976E-1,-3.570874929E-1,-3.984749913E-1
6.013375330E-1,1.652749926E-1,-3.559874892E-1,-3.920125067E-1
6.038711500E-1,1.472624987E-1,-3.517250121E-1,-3.803249896E-1
6.064046940E-1,1.365374923E-1,-3.496625125E-1,-3.740000129E-1
6.089384610E-1,1.259499937E-1,-3.496625125E-1,-3.718000054E-1
6.114720780E-1,1.163249984E-1,-3.506250083E-1,-3.686375022E-1
6.140058460E-1,1.057374999E-1,-3.548874855E-1,-3.686375022E-1
6.165394670E-1,9.404999763E-2,-3.581874967E-1,-3.686375022E-1
6.190732340E-1,8.552499861E-2,-3.581874967E-1,-3.643749952E-1
6.216068520E-1,8.016250283E-2,-3.591499925E-1,-3.580499887E-1
6.241406190E-1,7.809999585E-2,-3.591499925E-1,-3.548874855E-1
6.266742320E-1,7.053750008E-2,-3.570874929E-1,-3.506250083E-1
6.292077710E-1,6.531249732E-2,-3.548874855E-1,-3.463625014E-1
6.317416150E-1,5.678749830E-2,-3.559874892E-1,-3.430624902E-1
6.342753840E-1,4.826249927E-2,-3.581874967E-1,-3.409999907E-1
6.368090110E-1,4.509999976E-2,-3.624500036E-1,-3.420999944E-1
6.393427780E-1,3.863750026E-2,-3.656125069E-1,-3.388000131E-1
6.418763180E-1,2.914999984E-2,-3.676750064E-1,-3.324750066E-1
6.444099320E-1,2.158750035E-2,-3.719374835E-1,-3.261500001E-1
6.469436870E-1,1.842499897E-2,-3.750999868E-1,-3.165250123E-1
6.494773040E-1,1.526249945E-2,-3.741374910E-1,-3.048374951E-1
6.520110720E-1,9.899999946E-3,-3.750999868E-1,-2.909500003E-1
6.545446890E-1,8.937500417E-3,-3.761999905E-1,-2.750000060E-1
6.570784700E-1,5.637499969E-3,-3.761999905E-1,-2.568500042E-1
6.596120880E-1,4.124999978E-4,-3.741374910E-1,-2.356749922E-1
6.621458550E-1,-3.849999979E-3,-3.761999905E-1,-2.175250053E-1
6.646794720E-1,-8.112499490E-3,-3.815625012E-1,-2.026749998E-1
6.672132630E-1,-1.663750038E-2,-3.932499886E-1,-1.876875013E-1
6.697468810E-1,-2.626249939E-2,-4.060375094E-1,-1.728374958E-1
6.722804190E-1,-4.015000165E-2,-4.134624898E-1,-1.579875052E-1
6.748141870E-1,-6.132499874E-2,-4.219875038E-1,-1.420374960E-1
6.773480330E-1,-7.095000148E-2,-4.273499846E-1,-1.335124969E-1
6.798815730E-1,-6.984999776E-2,-4.262500107E-1,-1.249874979E-1
6.824151890E-1,-6.984999776E-2,-4.145624936E-1,-1.207249984E-1
6.849489560E-1,-6.875000149E-2,-4.081000090E-1,-1.185249984E-1
6.874825630E-1,-6.242499873E-2,-4.038375020E-1,-1.175625026E-1
6.900163300E-1,-6.036249921E-2,-3.932499886E-1,-1.175625026E-1
6.925499480E-1,-5.926249921E-2,-3.815625012E-1,-1.207249984E-1
6.950837150E-1,-5.926249921E-2,-3.783999979E-1,-1.249874979E-1
6.976173080E-1,-5.609999970E-2,-3.719374835E-1,-1.281500012E-1
7.001510760E-1,-5.389999971E-2,-3.687750101E-1,-1.270499974E-1
7.026846930E-1,-4.427500069E-2,-3.826625049E-1,-1.175625026E-1
7.052182320E-1,-3.684999794E-2,-3.793624938E-1,-1.099999994E-1
7.077520860E-1,-3.684999794E-2,-3.772999942E-1,-1.057374999E-1
7.102856260E-1,-2.626249939E-2,-3.943499923E-1,-9.941250086E-2
7.128194700E-1,-9.212499484E-3,-4.145624936E-1,-9.404999763E-2
7.153530110E-1,6.737499963E-3,-4.177249968E-1,-9.404999763E-2
7.178867540E-1,2.914999984E-2,-4.230875075E-1,-9.308750182E-2
7.204203710E-1,7.053750008E-2,-6.571124792E-1,-6.435000151E-2
7.229541390E-1,1.046374962E-1,-1.039224982E0,-3.574999981E-3
7.254877560E-1,1.142624989E-1,-9.168499708E-1,5.059999973E-2
7.280215470E-1,1.216875017E-1,-4.666749835E-1,5.912499875E-2
7.305551650E-1,1.355749965E-1,-2.506625056E-1,2.612499893E-2
7.330889320E-1,1.504250020E-1,-3.209249973E-1,-2.708750032E-2
7.356225490E-1,1.482249945E-1,-4.444000125E-1,-8.236250281E-2
7.381563460E-1,1.387374997E-1,-5.017374754E-1,-1.185249984E-1
7.406899630E-1,1.396999955E-1,-4.837250113E-1,-1.335124969E-1
7.432237300E-1,1.557874978E-1,-4.060375094E-1,-1.344749928E-1
7.457572710E-1,1.674750000E-1,-3.326124847E-1,-1.292500049E-1
7.482908160E-1,1.706375033E-1,-2.921875119E-1,-1.185249984E-1
7.508245850E-1,1.674750000E-1,-2.793999910E-1,-1.057374999E-1
7.533582030E-1,1.652749926E-1,-2.697750032E-1,-9.624999762E-2
7.558919700E-1,1.717374921E-1,-2.602874935E-1,-9.198749810E-2
7.584255730E-1,1.769624949E-1,-2.549250126E-1,-9.515000135E-2
7.609593410E-1,1.791625023E-1,-2.432374954E-1,-9.941250086E-2
7.634929580E-1,1.802625060E-1,-2.421374917E-1,-1.079374999E-1
7.660267250E-1,1.823250055E-1,-2.400749922E-1,-1.164624989E-1
7.685603330E-1,1.834249943E-1,-2.432374954E-1,-1.218250021E-1
7.710941000E-1,1.854874939E-1,-2.441999912E-1,-1.218250021E-1
7.736277170E-1,1.897500008E-1,-2.484624982E-1,-1.238875017E-1
7.761614840E-1,1.929125041E-1,-2.475000024E-1,-1.238875017E-1
7.786950250E-1,1.929125041E-1,-2.527250051E-1,-1.238875017E-1
7.812286380E-1,1.887875050E-1,-2.591874897E-1,-1.259499937E-1
7.837624070E-1,1.876875013E-1,-2.612499893E-1,-1.259499937E-1
7.862962540E-1,1.876875013E-1,-2.623499930E-1,-1.249874979E-1
7.888297940E-1,1.876875013E-1,-2.623499930E-1,-1.238875017E-1
7.913634100E-1,1.834249943E-1,-2.612499893E-1,-1.249874979E-1
7.938971770E-1,1.823250055E-1,-2.591874897E-1,-1.270499974E-1
7.964307940E-1,1.737999916E-1,-2.538250089E-1,-1.302125007E-1
7.989645420E-1,1.632124931E-1,-2.441999912E-1,-1.366750002E-1
8.014981600E-1,1.515250057E-1,-2.336124927E-1,-1.463000029E-1
8.040319270E-1,1.419000030E-1,-2.197249979E-1,-1.546874940E-1
8.065655440E-1,1.302125007E-1,-2.091374993E-1,-1.643124968E-1
8.090993310E-1,1.216875017E-1,-1.974499971E-1,-1.759999990E-1
8.116329480E-1,1.142624989E-1,-1.889249980E-1,-1.876875013E-1
8.141664860E-1,9.927500039E-2,-1.815000027E-1,-1.995124966E-1
8.167003310E-1,8.016250283E-2,-1.698125005E-1,-2.079000026E-1
8.192340950E-1,6.104999781E-2,-1.548250020E-1,-2.164250016E-1
8.217676350E-1,4.716249928E-2,-1.346125007E-1,-2.271499932E-1
8.243012510E-1,3.753750026E-2,-1.175625026E-1,-2.377374917E-1
8.268350180E-1,2.804999985E-2,-1.049124971E-1,-2.494249940E-1
8.293686400E-1,1.952499896E-2,-9.308750182E-2,-2.568500042E-1
8.319024080E-1,1.099999994E-2,-8.882500231E-2,-2.611125112E-1
8.344360250E-1,6.737499963E-3,-8.470000327E-2,-2.633124888E-1
8.369697920E-1,7.837500423E-3,-8.566249907E-2,-2.579500079E-1
8.395034240E-1,3.574999981E-3,-8.786249906E-2,-2.462625057E-1
8.420371910E-1,4.124999978E-4,-7.713750005E-2,-2.356749922E-1
8.445707310E-1,-2.887499984E-3,-6.435000151E-2,-2.260500044E-1
8.471045750E-1,-6.049999967E-3,-6.764999777E-2,-2.154625058E-1
8.496381890E-1,-7.149999961E-3,-7.191249728E-2,-2.015749961E-1
8.521719560E-1,-1.237499993E-2,-7.081250101E-2,-1.909874976E-1
8.547054970E-1,-1.141249947E-2,-7.397499681E-2,-1.791625023E-1
8.572391100E-1,-1.553750038E-2,-7.081250101E-2,-1.696749926E-1
8.597729600E-1,-1.979999989E-2,-6.228749827E-2,-1.643124968E-1
8.623065010E-1,-2.406249940E-2,-4.839999974E-2,-1.622499973E-1
8.648402680E-1,-2.832499892E-2,-3.987500072E-2,-1.674750000E-1
8.673738850E-1,-3.684999794E-2,-3.355000168E-2,-1.685750037E-1
8.699076480E-1,-4.111250117E-2,-2.186249942E-2,-1.707749963E-1
8.724412660E-1,-3.904999793E-2,-1.966249943E-2,-1.696749926E-1
8.749750330E-1,-3.904999793E-2,-1.539999992E-2,-1.674750000E-1
8.775086500E-1,-4.537500069E-2,-1.333750039E-2,-1.589500010E-1
8.800424420E-1,-4.221250117E-2,-1.113750041E-2,-1.515250057E-1
8.825760590E-1,-3.684999794E-2,-7.974999957E-3,-1.366750002E-1
8.851098260E-1,-3.588749841E-2,-7.974999957E-3,-1.227874979E-1
8.876433670E-1,-3.368749842E-2,-2.392499894E-2,-1.111000031E-1
8.901771960E-1,-3.588749841E-2,-4.949999973E-2,-9.198749810E-2
8.927107360E-1,-3.684999794E-2,-5.912499875E-2,-7.493750006E-2
8.952445810E-1,-3.052499890E-2,-5.596249923E-2,-6.324999779E-2
8.977781210E-1,-1.663750038E-2,-6.655000150E-2,-5.362499878E-2
9.003117170E-1,-2.887499984E-3,-8.139999956E-2,-3.657500073E-2
9.028454850E-1,1.209999993E-2,-7.397499681E-2,-2.598750032E-2
9.053791020E-1,2.062499896E-2,-6.435000151E-2,-1.966249943E-2
9.079128690E-1,3.121249937E-2,-5.802499875E-2,-1.429999992E-2
9.104465400E-1,3.657500073E-2,-5.596249923E-2,-1.746249944E-2
9.129803070E-1,4.083750024E-2,-4.523750022E-2,-2.282499894E-2
9.155139240E-1,4.289999977E-2,-2.928750031E-2,-3.024999984E-2
9.180476920E-1,4.083750024E-2,-2.296249941E-2,-4.083750024E-2
9.205813090E-1,3.863750026E-2,-2.076249942E-2,-5.156249925E-2
9.231150760E-1,3.341250122E-2,-1.333750039E-2,-6.435000151E-2
9.256486940E-1,2.488750033E-2,-3.891250119E-2,-6.861250103E-2
9.281824610E-1,-6.874999963E-4,-1.271875054E-1,-6.957499683E-2
9.307160150E-1,-2.516249940E-2,-1.985500008E-1,-7.699999958E-2
9.332496290E-1,-3.478749841E-2,-2.378749996E-1,-8.552499861E-2
9.357833980E-1,-2.516249940E-2,-2.782999873E-1,-9.624999762E-2
9.383170150E-1,-1.347499993E-2,-3.070375025E-1,-1.196250021E-1
9.408507830E-1,-7.149999961E-3,-3.261500001E-1,-1.440999955E-1
9.433844000E-1,-7.149999961E-3,-3.465000093E-1,-1.707749963E-1
9.459181670E-1,-8.112499490E-3,-3.528249860E-1,-1.930499971E-1
9.484517850E-1,-1.141249947E-2,-3.422375023E-1,-2.175250053E-1
9.509855420E-1,-9.212499484E-3,-3.346749842E-1,-2.377374917E-1
9.535191590E-1,-7.149999961E-3,-3.346749842E-1,-2.536875010E-1
9.560529260E-1,-1.347499993E-2,-3.155624866E-1,-2.601499856E-1
9.585865440E-1,-2.199999988E-2,-2.814624906E-1,-2.633124888E-1
9.611201060E-1,-3.904999793E-2,-2.389750034E-1,-2.729375064E-1
9.636538740E-1,-4.331250116E-2,-1.931875050E-1,-2.739000022E-1
9.661874910E-1,-4.537500069E-2,-1.143999994E-1,-2.579500079E-1
9.687212580E-1,-4.647500068E-2,-2.612499893E-2,-2.441999912E-1
9.712550750E-1,-6.558749825E-2,-5.499999970E-4,-2.345750034E-1
9.737886160E-1,-8.373750001E-2,6.641250104E-2,-2.399374992E-1
9.763222310E-1,-1.039500013E-1,9.941250086E-2,-2.611125112E-1
9.788559980E-1,-1.241625026E-1,9.102500230E-2,-2.920500040E-1
9.813895970E-1,-1.304875016E-1,1.016125008E-1,-3.261500001E-1
9.839233640E-1,-1.337874979E-1,1.249874979E-1,-3.495250046E-1
9.864569810E-1,-1.337874979E-1,1.601874977E-1,-3.623124957E-1
9.889907490E-1,-1.262249947E-1,2.143625021E-1,-3.675374985E-1
9.915243470E-1,-1.199000031E-1,2.505249977E-1,-3.654749990E-1
9.940581140E-1,-1.178374961E-1,2.580874860E-1,-3.601124883E-1
9.965916550E-1,-1.252624989E-1,2.516250014E-1,-3.430624902E-1
9.991254990E-1,-1.380500048E-1,2.314125001E-1,-3.165250123E-1
1.001659097E0,-1.454750001E-1,2.091374993E-1,-2.846249938E-1
1.004192865E0,-1.486375034E-1,1.909874976E-1,-2.516250014E-1
1.006726405E0,-1.507000029E-1,1.654125005E-1,-2.154625058E-1
1.009260018E0,-1.518000066E-1,1.346125007E-1,-1.782000065E-1
1.011793802E0,-1.528999954E-1,1.229249984E-1,-1.366750002E-1
1.014327419E0,-1.486375034E-1,1.357125044E-1,-9.624999762E-2
1.016861186E0,-1.337874979E-1,1.696749926E-1,-6.008749828E-2
1.019394804E0,-1.284250021E-1,1.654125005E-1,-4.729999974E-2
1.021928576E0,-1.560624987E-1,5.266249925E-2,-5.788749829E-2
1.024462193E0,-1.794375032E-1,-2.076249942E-2,-6.215000153E-2
1.026995732E0,-1.944250017E-1,-4.413750023E-2,-6.751249731E-2
1.029529576E0,-1.879625022E-1,-7.397499681E-2,-7.067500055E-2
1.032063330E0,-1.784749925E-1,-1.038125008E-1,-6.641250104E-2
1.034596948E0,-1.709125042E-1,-1.463000029E-1,-5.678749830E-2
1.037130486E0,-1.614249945E-1,-1.985500008E-1,-4.303750023E-2
1.039664253E0,-1.497374922E-1,-2.367749959E-1,-2.598750032E-2
1.042197829E0,-1.423124969E-1,-2.729375064E-1,-4.674999975E-3
1.044731545E0,-1.315875053E-1,-2.974124849E-1,1.333750039E-2
1.047265246E0,-1.199000031E-1,-3.304125071E-1,2.516249940E-2
1.049798981E0,-1.199000031E-1,-3.741374910E-1,2.942499891E-2
1.052332598E0,-1.102750003E-1,-4.060375094E-1,3.258749843E-2
1.054866365E0,-9.226249903E-2,-4.325749874E-1,4.001250118E-2
1.057399983E0,-8.057499677E-2,-4.635125101E-1,4.207500070E-2
1.059933740E0,-7.095000148E-2,-4.772624969E-1,5.059999973E-2
1.062467357E0,-6.242499873E-2,-4.890874922E-1,6.448750198E-2
1.065001124E0,-5.499999970E-2,-4.965125024E-1,7.507500052E-2
1.067534742E0,-4.853750020E-2,-5.050374866E-1,7.933750004E-2
1.070068295E0,-5.926249921E-2,-5.167250037E-1,8.676250279E-2
1.072602062E0,-6.036249921E-2,-5.178250074E-1,1.028499976E-1
1.075135680E0,-5.706249923E-2,-5.209875107E-1,1.145374998E-1
1.077669524E0,-5.706249923E-2,-5.113624930E-1,1.197625026E-1
1.080203069E0,-4.963750020E-2,-4.857875109E-1,1.273249984E-1
1.082736837E0,-4.537500069E-2,-4.794625044E-1,1.304875016E-1
1.085270454E0,-4.221250117E-2,-4.890874922E-1,1.442375034E-1
1.087804221E0,-3.588749841E-2,-4.837250113E-1,1.518000066E-1
1.090337834E0,-2.626249939E-2,-4.560874999E-1,1.592250019E-1
1.092871601E0,-1.979999989E-2,-4.273499846E-1,1.677500010E-1
1.095405218E0,-1.237499993E-2,-4.102999866E-1,1.751749963E-1
1.097938986E0,-3.849999979E-3,-3.932499886E-1,1.825999916E-1
1.100472608E0,4.674999975E-3,-3.761999905E-1,1.890625060E-1
1.103006375E0,7.837500423E-3,-3.676750064E-1,1.836999953E-1
1.105539993E0,1.209999993E-2,-3.528249860E-1,1.815000027E-1
1.108073760E0,1.416249946E-2,-3.315125108E-1,1.772374958E-1
1.110607377E0,2.268750034E-2,-2.996124923E-1,1.687124968E-1
1.113141144E0,3.011249937E-2,-2.677125037E-1,1.560624987E-1
1.115674685E0,4.179999977E-2,-2.484624982E-1,1.495999992E-1
1.118208298E0,4.083750024E-2,-2.239875048E-1,1.368124932E-1
1.120742068E0,4.716249928E-2,-1.868624985E-1,1.304875016E-1
1.123275914E0,5.142499879E-2,-1.548250020E-1,1.293874979E-1
1.125809454E0,5.032499880E-2,-1.282874942E-1,1.282874942E-1
1.128343070E0,4.289999977E-2,-1.058750004E-1,1.273249984E-1
1.130876813E0,3.011249937E-2,-7.507500052E-2,1.304875016E-1
1.133410430E0,1.952499896E-2,-4.097500071E-2,1.336500049E-1
1.135944197E0,1.099999994E-2,-1.443750039E-2,1.304875016E-1
1.138477815E0,5.637499969E-3,-2.749999985E-3,1.262249947E-1
1.141011601E0,2.474999987E-3,1.746249944E-2,1.240250021E-1
1.143545218E0,4.124999978E-4,4.193750024E-2,1.145374998E-1
1.146078986E0,-1.787499990E-3,5.898749828E-2,1.006499976E-1
1.148612526E0,-7.149999961E-3,7.177499682E-2,8.896250278E-2
1.151146153E0,-4.949999973E-3,8.456250280E-2,8.263749629E-2
1.153679999E0,-1.787499990E-3,9.844999760E-2,7.837499678E-2
1.156213539E0,9.899999946E-3,8.772499859E-2,7.507500052E-2
1.158747383E0,3.547500074E-2,6.544999778E-2,5.596249923E-2
1.161280929E0,5.458749831E-2,5.692499876E-2,2.516249940E-2
1.163814696E0,4.936249927E-2,8.676250279E-2,-1.209999993E-2
1.166348313E0,2.488750033E-2,1.451999992E-1,-3.561250120E-2
1.168882081E0,-1.237499993E-2,2.048749924E-1,-4.193750024E-2
1.171415703E0,-4.963750020E-2,2.558875084E-1,-3.657500073E-2
1.173949470E0,-8.057499677E-2,3.070375025E-1,-3.341250122E-2
1.176483088E0,-9.858749807E-2,3.420999944E-1,-2.914999984E-2
1.179016855E0,-9.542500228E-2,3.495250046E-1,-2.488750033E-2
1.181550467E0,-8.263749629E-2,3.517250121E-1,-1.209999993E-2
1.184084006E0,-6.888750196E-2,3.526875079E-1,1.979999989E-2
1.186617850E0,-6.888750196E-2,3.559874892E-1,5.486249924E-2
1.189151619E0,-9.006249905E-2,3.569499850E-1,7.191249728E-2
1.191685170E0,-1.284250021E-1,3.346749842E-1,7.837499678E-2
1.194218785E0,-1.731124967E-1,3.165250123E-1,9.212499857E-2
1.196752552E0,-1.975875050E-1,3.389374912E-1,9.432499856E-2
1.199286170E0,-2.326499969E-1,3.654749990E-1,6.655000150E-2
1.201819946E0,-2.476374954E-1,3.814249933E-1,3.781250119E-2
1.204353563E0,-2.337500006E-1,3.825249970E-1,2.296249941E-2
1.206887331E0,-2.081750035E-1,3.782624900E-1,1.127499994E-2
1.209420948E0,-1.879625022E-1,4.027374983E-1,4.949999973E-3
1.211954749E0,-1.677500010E-1,4.474250078E-1,1.663750038E-2
1.214488290E0,-1.295250058E-1,4.996750057E-1,5.059999973E-2
1.217022134E0,-8.373750001E-2,5.389999747E-1,1.091749966E-1
1.219555751E0,-6.462500244E-2,5.219500065E-1,1.783374995E-1
1.222089532E0,-8.579999954E-2,4.921124876E-1,2.241249979E-1
1.224623073E0,-9.432499856E-2,5.506874919E-1,2.645500004E-1
1.227156686E0,-9.336250275E-2,5.709000230E-1,2.879250050E-1
1.229690456E0,-8.799999952E-2,5.475249887E-1,2.996124923E-1
1.232224049E0,-7.521250099E-2,5.368000269E-1,3.071750104E-1
1.234757893E0,-7.727500051E-2,5.208500028E-1,3.029125035E-1
1.237291434E0,-8.579999954E-2,5.432624817E-1,2.719750106E-1
1.239825201E0,-1.028499976E-1,5.964750051E-1,2.369125038E-1
1.242358813E0,-1.071124971E-1,6.369000077E-1,2.050125003E-1
1.244892580E0,-9.652499855E-2,6.571124792E-1,1.815000027E-1
1.247426198E0,-8.483749628E-2,6.634374857E-1,1.603250057E-1
1.249959965E0,-7.631249726E-2,6.571124792E-1,1.432749927E-1
1.252493568E0,-6.462500244E-2,6.485875249E-1,1.336500049E-1
1.255027336E0,-5.279999971E-2,6.380000114E-1,1.304875016E-1
1.257560953E0,-5.183750018E-2,6.294749975E-1,1.315875053E-1
1.260094492E0,-5.499999970E-2,6.198499799E-1,1.262249947E-1
1.262628235E0,-5.926249921E-2,6.124249697E-1,1.176999956E-1
1.265162081E0,-5.926249921E-2,5.985375047E-1,1.080750003E-1
1.267695698E0,-5.279999971E-2,5.751624703E-1,9.432499856E-2
1.270229237E0,-3.684999794E-2,5.634750128E-1,8.153750002E-2
1.272763010E0,-1.663750038E-2,5.538499951E-1,7.301250100E-2
1.275296627E0,6.737499963E-3,5.325375199E-1,5.816249922E-2
1.277830395E0,2.584999986E-2,5.165874958E-1,4.963750020E-2
1.280364012E0,4.083750024E-2,4.954124987E-1,3.891250119E-2
1.282897793E0,4.606249928E-2,4.581499994E-1,3.038750030E-2
1.285431411E0,3.973750025E-2,4.016374946E-1,2.832499892E-2
1.287965178E0,3.753750026E-2,3.335750103E-1,2.722499892E-2
1.290498795E0,3.753750026E-2,2.707374990E-1,2.722499892E-2
1.293032563E0,4.289999977E-2,2.165624946E-1,2.406249940E-2
1.295566180E0,4.826249927E-2,1.548250020E-1,2.186249942E-2
1.298099947E0,5.884999782E-2,8.566249907E-2,1.979999989E-2
1.300633565E0,7.163749635E-2,2.392499894E-2,2.296249941E-2
1.303167098E0,8.442500234E-2,-3.464999795E-2,3.038750030E-2
1.305700865E0,9.075000137E-2,-9.735000134E-2,4.317500070E-2
1.308234483E0,9.611249715E-2,-1.463000029E-1,6.022499874E-2
1.310768327E0,9.721250087E-2,-1.868624985E-1,8.676250279E-2
1.313301853E0,9.404999763E-2,-2.123000026E-1,1.155000031E-1
1.315835621E0,8.758749813E-2,-2.304500043E-1,1.453374922E-1
1.318369238E0,8.016250283E-2,-2.602874935E-1,1.740749925E-1
1.320903005E0,7.163749635E-2,-2.921875119E-1,1.985500008E-1
1.323436618E0,5.458749831E-2,-3.304125071E-1,2.198625058E-1
1.325970385E0,3.863750026E-2,-3.454000056E-1,2.389750034E-1
1.328504002E0,2.062499896E-2,-3.326124847E-1,2.528625131E-1
1.331037769E0,5.637499969E-3,-3.016749918E-1,2.624875009E-1
1.333571401E0,-1.141249947E-2,-2.475000024E-1,2.656500041E-1
1.336104939E0,-2.406249940E-2,-1.889249980E-1,2.613874972E-1
1.338638783E0,-4.015000165E-2,-1.208624989E-1,2.528625131E-1
1.341172553E0,-5.609999970E-2,-3.671250120E-2,2.475000024E-1
1.343706088E0,-7.947500050E-2,5.472499877E-2,2.475000024E-1
1.346239932E0,-1.017500013E-1,1.537249982E-1,2.463999987E-1
1.348773473E0,-1.252624989E-1,2.569875121E-1,2.506625056E-1
1.351307088E0,-1.475374997E-1,3.771624863E-1,2.624875009E-1
1.353840841E0,-1.710499972E-1,4.878500104E-1,2.699125111E-1
1.356374459E0,-1.890625060E-1,5.773624778E-1,2.793999910E-1
1.358908226E0,-1.964875013E-1,6.400625110E-1,2.815999985E-1
1.361441843E0,-1.975875050E-1,6.890124679E-1,2.741749883E-1
1.363975611E0,-1.859000027E-1,7.316374779E-1,2.613874972E-1
1.366509228E0,-1.625249982E-1,7.677999735E-1,2.486000061E-1
1.369042995E0,-1.380500048E-1,7.986000180E-1,2.315499932E-1
1.371576613E0,-1.241625026E-1,8.252750039E-1,2.198625058E-1
1.374110370E0,-1.178374961E-1,8.454874754E-1,2.124374956E-1
1.376643987E0,-1.124750003E-1,8.571749926E-1,2.070749998E-1
1.379177755E0,-1.156374961E-1,8.582749963E-1,2.113374919E-1
1.381711295E0,-1.178374961E-1,8.486499786E-1,2.135374993E-1
1.384244898E0,-1.124750003E-1,8.358625174E-1,2.135374993E-1
1.386778745E0,-1.050499976E-1,8.210124969E-1,2.102375031E-1
1.389312285E0,-9.432499856E-2,8.082249761E-1,2.135374993E-1
1.391846129E0,-8.153750002E-2,7.954375148E-1,2.144999951E-1
1.394379685E0,-7.204999775E-2,7.869125009E-1,2.155999988E-1
1.396913452E0,-6.462500244E-2,7.848500013E-1,2.198625058E-1
1.399447069E0,-6.462500244E-2,7.794874907E-1,2.209624946E-1
1.401980836E0,-6.778749824E-2,7.859500051E-1,2.272875011E-1
1.404514444E0,-6.558749825E-2,8.007999659E-1,2.252250016E-1
1.407048211E0,-6.778749824E-2,8.093249798E-1,2.209624946E-1
1.409581829E0,-6.778749824E-2,8.221125007E-1,2.230249941E-1
1.412115596E0,-6.778749824E-2,8.327000141E-1,2.230249941E-1
1.414649136E0,-6.984999776E-2,8.432874680E-1,2.241249979E-1
1.417182750E0,-7.204999775E-2,8.497499824E-1,2.315499932E-1
1.419716596E0,-7.837499678E-2,8.571749926E-1,2.326499969E-1
1.422250365E0,-8.153750002E-2,8.593750000E-1,2.315499932E-1
1.424783997E0,-8.263749629E-2,8.560749888E-1,2.304500043E-1
1.427317536E0,-8.799999952E-2,8.465874791E-1,2.241249979E-1
1.429851303E0,-8.799999952E-2,8.327000141E-1,2.219250053E-1
1.432384920E0,-8.483749628E-2,8.316000104E-1,2.230249941E-1
1.434918683E0,-8.153750002E-2,8.230749965E-1,2.304500043E-1
1.437452300E0,-8.263749629E-2,7.976375222E-1,2.463999987E-1
1.439986067E0,-8.057499677E-2,7.763249874E-1,2.602874935E-1
1.442519685E0,-7.837499678E-2,7.698624730E-1,2.688125074E-1
1.445053433E0,-7.301250100E-2,7.666999698E-1,2.751374841E-1
1.447586973E0,-6.132499874E-2,7.561125159E-1,2.827000022E-1
1.450120818E0,-4.963750020E-2,7.496500015E-1,2.847625017E-1
1.452654435E0,-3.795000166E-2,7.486875057E-1,2.815999985E-1
1.455188226E0,-2.736249939E-2,7.327374816E-1,2.815999985E-1
1.457721844E0,-1.141249947E-2,7.134875059E-1,2.847625017E-1
1.460255382E0,3.574999981E-3,7.123875022E-1,2.793999910E-1
1.462789149E0,1.842499897E-2,7.114250064E-1,2.741749883E-1
1.465322747E0,2.378750034E-2,7.039999962E-1,2.751374841E-1
1.467856514E0,3.011249937E-2,7.060624957E-1,2.901250124E-1
1.470390360E0,4.083750024E-2,7.199500203E-1,3.145999908E-1
1.472923901E0,4.936249927E-2,7.368624806E-1,3.368749917E-1
1.475457531E0,4.716249928E-2,7.688999772E-1,3.411374986E-1
1.477991298E0,4.179999977E-2,8.039624691E-1,3.177624941E-1
1.480524916E0,3.121249937E-2,8.210124969E-1,2.666125000E-1
1.483058683E0,1.306249946E-2,7.997000217E-1,1.868624985E-1
1.485592290E0,-1.773750037E-2,7.464874983E-1,9.322500229E-2
1.488126057E0,-4.963750020E-2,6.912124753E-1,2.832499892E-2
1.490659675E0,-7.095000148E-2,6.539499760E-1,4.949999973E-3
1.493193213E0,-7.727500051E-2,6.283749938E-1,1.869999990E-2
1.495726967E0,-8.689999580E-2,5.762624741E-1,6.132499874E-2
1.498260813E0,-9.858749807E-2,5.890499949E-1,1.049124971E-1
1.500794353E0,-9.116250277E-2,7.826499939E-1,1.421750039E-1
1.503328197E0,-4.757500067E-2,1.115812540E0,1.687124968E-1
1.505861805E0,1.306249946E-2,1.271187544E0,2.326499969E-1
1.508395343E0,2.584999986E-2,1.147712469E0,3.114374876E-1
1.510929110E0,-3.478749841E-2,9.934374690E-1,3.433375061E-1
1.513462728E0,-1.093124971E-1,9.380249977E-1,3.465000093E-1
1.515996495E0,-1.401125044E-1,9.550749660E-1,3.337124884E-1
1.518530112E0,-1.432749927E-1,9.860125184E-1,3.166624904E-1
1.521063880E0,-1.369500011E-1,1.019974947E0,2.975499928E-1
1.523597497E0,-1.241625026E-1,1.049812436E0,2.836624980E-1
1.526131269E0,-1.124750003E-1,1.057237506E0,2.708750069E-1
1.528664887E0,-9.968750179E-2,1.043487549E0,2.624875009E-1
1.531198425E0,-8.579999954E-2,1.017912507E0,2.571249902E-1
1.533732269E0,-7.947500050E-2,1.004024982E0,2.571249902E-1
1.536266029E0,-6.984999776E-2,9.965999722E-1,2.591874897E-1
1.538799646E0,-5.816249922E-2,9.965999722E-1,2.624875009E-1
1.541333184E0,-4.963750020E-2,9.954999685E-1,2.602874935E-1
1.543866952E0,-3.904999793E-2,9.869750142E-1,2.528625131E-1
1.546400578E0,-2.832499892E-2,9.721249938E-1,2.443374991E-1
1.548934345E0,-1.979999989E-2,9.530124664E-1,2.380124927E-1
1.551468191E0,-1.979999989E-2,9.348624945E-1,2.347124964E-1
1.554001732E0,-2.516249940E-2,9.231749773E-1,2.326499969E-1
1.556535357E0,-3.052499890E-2,9.092875123E-1,2.219250053E-1
1.559069125E0,-3.478749841E-2,8.955374956E-1,2.059749961E-1
1.561602742E0,-4.015000165E-2,8.762875199E-1,1.868624985E-1
1.564136509E0,-4.221250117E-2,8.529124856E-1,1.666499972E-1
1.566670127E0,-4.441250116E-2,8.241750002E-1,1.432749927E-1
1.569203894E0,-4.331250116E-2,7.922750115E-1,1.197625026E-1
1.571737511E0,-4.647500068E-2,7.592750192E-1,9.638749808E-2
1.574271278E0,-4.757500067E-2,7.316374779E-1,8.359999955E-2
1.576804833E0,-5.073750019E-2,7.060624957E-1,6.984999776E-2
1.579338677E0,-5.279999971E-2,6.869499683E-1,6.022499874E-2
1.581872294E0,-5.499999970E-2,6.634374857E-1,4.963750020E-2
1.584406062E0,-6.022499874E-2,6.369000077E-1,4.633750021E-2
1.586939621E0,-6.558749825E-2,6.081625223E-1,4.633750021E-2
1.589473235E0,-7.095000148E-2,5.751624703E-1,4.963750020E-2
1.592007004E0,-7.727500051E-2,5.410624743E-1,5.169999972E-2
1.594540621E0,-8.470000327E-2,5.039374828E-1,6.132499874E-2
1.597074388E0,-1.028499976E-1,4.602124989E-1,8.043749630E-2
1.599608006E0,-1.315875053E-1,4.112625122E-1,9.955000132E-2
1.602141773E0,-1.315875053E-1,3.814249933E-1,1.304875016E-1
1.604675390E0,-1.252624989E-1,3.719374835E-1,1.698125005E-1
1.607209182E0,-1.699499935E-1,3.207874894E-1,1.964875013E-1
1.609742799E0,-2.571249902E-1,2.111999989E-1,1.964875013E-1
1.612276566E0,-3.262875080E-1,1.090374961E-1,1.794375032E-1
1.614810184E0,-3.561249971E-1,5.582499877E-2,1.634874940E-1
1.617343951E0,-3.465000093E-1,2.818750031E-2,1.475374997E-1
1.619877568E0,-3.093749881E-1,-9.074999951E-3,1.347499937E-1
1.622411107E0,-2.613874972E-1,-5.376249924E-2,1.304875016E-1
1.624944874E0,-2.167000026E-1,-9.844999760E-2,1.325500011E-1
1.627478739E0,-1.816374958E-1,-1.495999992E-1,1.336500049E-1
1.630012280E0,-1.582625061E-1,-2.048749924E-1,1.368124932E-1
1.632545895E0,-1.518000066E-1,-2.538250089E-1,1.475374997E-1
1.635079662E0,-1.454750001E-1,-2.953499854E-1,1.623875052E-1
1.637613280E0,-1.390125006E-1,-3.315125108E-1,1.825999916E-1
1.640147047E0,-1.252624989E-1,-3.634124994E-1,1.985500008E-1
1.642680664E0,-1.028499976E-1,-3.793624938E-1,2.070749998E-1
1.645214432E0,-7.521250099E-2,-3.750999868E-1,2.124374956E-1
1.647748059E0,-4.427500069E-2,-3.634124994E-1,2.219250053E-1
1.650281826E0,-1.553750038E-2,-3.517250121E-1,2.336124927E-1
1.652815444E0,-1.787499990E-3,-3.548874855E-1,2.411749959E-1
1.655349211E0,-3.849999979E-3,-3.667125106E-1,2.432374954E-1
1.657882832E0,-1.347499993E-2,-3.645125031E-1,2.358125001E-1
1.660416371E0,-2.736249939E-2,-3.506250083E-1,2.198625058E-1
1.662950215E0,-4.331250116E-2,-3.261500001E-1,1.985500008E-1
1.665483984E0,-5.279999971E-2,-2.899875045E-1,1.740749925E-1
1.668017521E0,-6.242499873E-2,-2.569875121E-1,1.464374959E-1
1.670551136E0,-7.095000148E-2,-2.239875048E-1,1.187999994E-1
1.673084980E0,-7.301250100E-2,-1.740749925E-1,9.212499857E-2
1.675618521E0,-5.816249922E-2,-1.155000031E-1,5.376249924E-2
1.678152283E0,-3.795000166E-2,-1.143999994E-1,-2.598750032E-2
1.680685900E0,-3.368749842E-2,-1.495999992E-1,-1.302125007E-1
1.683219667E0,-6.132499874E-2,-2.091374993E-1,-2.058375031E-1
1.685753285E0,-1.093124971E-1,-2.751374841E-1,-2.441999912E-1
1.688287023E0,-1.571625024E-1,-3.294500113E-1,-2.419999987E-1
1.690820640E0,-1.975875050E-1,-3.539249897E-1,-1.962125003E-1
1.693354408E0,-2.146375030E-1,-3.539249897E-1,-1.164624989E-1
1.695888025E0,-2.188999951E-1,-3.454000056E-1,-2.062499896E-2
1.698421787E0,-2.061125040E-1,-3.283500075E-1,7.411249727E-2
1.700955328E0,-1.859000027E-1,-3.049750030E-1,1.464374959E-1
1.703489172E0,-1.634874940E-1,-2.762374878E-1,1.911250055E-1
1.706022712E0,-1.507000029E-1,-2.367749959E-1,2.113374919E-1
1.708556571E0,-1.497374922E-1,-1.952500045E-1,2.091374993E-1
1.711090188E0,-1.539999992E-1,-1.559250057E-1,1.868624985E-1
1.713623726E0,-1.623875052E-1,-1.175625026E-1,1.518000066E-1
1.716157494E0,-1.656875014E-1,-8.882500231E-2,1.145374998E-1
1.718691097E0,-1.656875014E-1,-5.059999973E-2,8.359999955E-2
1.721224864E0,-1.623875052E-1,-5.499999970E-4,6.022499874E-2
1.723758482E0,-1.592250019E-1,4.413750023E-2,4.963750020E-2
1.726292249E0,-1.475374997E-1,8.992499858E-2,4.633750021E-2
1.728825876E0,-1.358499974E-1,1.281500012E-1,4.537500069E-2
1.731359644E0,-1.262249947E-1,1.568875015E-1,4.963750020E-2
1.733893261E0,-1.167374998E-1,1.846625060E-1,4.853750020E-2
1.736427028E0,-1.102750003E-1,2.134000063E-1,3.891250119E-2
1.738960650E0,-1.093124971E-1,2.336124927E-1,2.722499892E-2
1.741494417E0,-1.060125008E-1,2.431000024E-1,1.017499994E-2
1.744028034E0,-9.322500229E-2,2.378749996E-1,-2.708750032E-2
1.746561801E0,-7.411249727E-2,2.452999949E-1,-6.641250104E-2
1.749095338E0,-5.499999970E-2,2.996124923E-1,-1.036750004E-1
1.751628951E0,-4.111250117E-2,3.793624938E-1,-1.335124969E-1
1.754162720E0,-4.537500069E-2,4.186874926E-1,-1.632124931E-1
1.756696567E0,-4.001250118E-2,4.314749837E-1,-1.792999953E-1
1.759230107E0,-2.736249939E-2,5.070999861E-1,-1.792999953E-1
1.761763723E0,-5.816249922E-2,5.495874882E-1,-1.834249943E-1
1.764297490E0,-7.095000148E-2,5.634750128E-1,-1.919499934E-1
1.766831107E0,-7.095000148E-2,6.198499799E-1,-1.962125003E-1
1.769364874E0,-9.542500228E-2,6.465250254E-1,-2.356749922E-1
1.771898492E0,-9.652499855E-2,6.198499799E-1,-2.590500116E-1
1.774432259E0,-9.542500228E-2,6.645374894E-1,-2.579500079E-1
1.776965876E0,-1.549624950E-1,6.879125237E-1,-2.547875047E-1
1.779499624E0,-1.922249943E-1,6.964374781E-1,-2.303124964E-1
1.782033241E0,-1.847999990E-1,6.890124679E-1,-1.962125003E-1
1.784567008E0,-2.072124928E-1,6.582124829E-1,-1.207249984E-1
1.787100626E0,-2.635875046E-1,7.422249913E-1,-6.008749828E-2
1.789634408E0,-3.231250048E-1,7.837499976E-1,-4.413750023E-2
1.792168025E0,-3.507624865E-1,7.646374702E-1,-5.472499877E-2
1.794701564E0,-3.635500073E-1,7.134875059E-1,-1.121999994E-1
1.797235331E0,-3.433375061E-1,6.593124866E-1,-1.665125042E-1
1.799768943E0,-2.901250124E-1,6.252124906E-1,-2.303124964E-1
1.802302711E0,-2.326499969E-1,5.655375123E-1,-2.399374992E-1
1.804836328E0,-1.859000027E-1,5.378999710E-1,-2.547875047E-1
1.807370172E0,-1.582625061E-1,5.039374828E-1,-2.569875121E-1
1.809903718E0,-1.284250021E-1,4.422000051E-1,-2.707374990E-1
1.812437485E0,-1.199000031E-1,3.665750027E-1,-2.505249977E-1
1.814971102E0,-1.167374998E-1,3.389374912E-1,-2.792625129E-1
1.817504869E0,-9.116250277E-2,2.751374841E-1,-2.431000024E-1
1.820038496E0,-5.609999970E-2,3.016749918E-1,-2.686749995E-1
1.822572263E0,-1.553750038E-2,2.558875084E-1,-2.292124927E-1
1.825105881E0,6.737499963E-3,2.718375027E-1,-2.314125001E-1
1.827639648E0,3.341250122E-2,2.857249975E-1,-2.579500079E-1
1.830173270E0,5.788749829E-2,2.421374917E-1,-1.941500008E-1
1.832706809E0,4.289999977E-2,3.059374988E-1,-2.037750036E-1
1.835240576E0,1.952499896E-2,2.942500114E-1,-1.876875013E-1
1.837774193E0,-1.787499990E-3,2.996124923E-1,-1.685750037E-1
1.840308042E0,-2.309999987E-2,3.559874892E-1,-1.973125041E-1
1.842841812E0,-5.279999971E-2,3.165250123E-1,-1.600500047E-1
1.845375352E0,-9.116250277E-2,3.324750066E-1,-1.876875013E-1
1.847908967E0,-1.007874981E-1,3.654749990E-1,-2.419999987E-1
1.850442773E0,-1.124750003E-1,3.102000058E-1,-2.079000026E-1
1.852976390E0,-1.412124932E-1,3.198249936E-1,-2.771999836E-1
1.855510157E0,-1.187999994E-1,3.634124994E-1,-3.207874894E-1
1.858043775E0,-1.156374961E-1,3.198249936E-1,-2.547875047E-1
1.860577552E0,-1.528999954E-1,2.868250012E-1,-2.941125035E-1
1.863111169E0,-1.454750001E-1,2.729375064E-1,-3.558500111E-1
1.865644937E0,-1.241625026E-1,2.399374992E-1,-3.218874931E-1
1.868178554E0,-1.539999992E-1,1.803999990E-1,-2.558875084E-1
1.870712292E0,-1.794375032E-1,1.761374921E-1,-3.250499964E-1
1.873245910E0,-1.464374959E-1,1.644500047E-1,-3.856875002E-1
1.875779677E0,-1.167374998E-1,1.303499937E-1,-3.654749990E-1
1.878313294E0,-1.304875016E-1,8.772499859E-2,-2.644124925E-1
1.880846847E0,-1.751749963E-1,8.882500231E-2,-3.293125033E-1
1.883380614E0,-1.549624950E-1,8.030000329E-2,-4.250124991E-1
1.885914231E0,-1.176999956E-1,5.898749828E-2,-4.420624971E-1
1.888447999E0,-1.113749966E-1,5.582499877E-2,-3.953124881E-1
1.890981836E0,-1.304875016E-1,8.676250279E-2,-2.909500003E-1
1.893515376E0,-1.731124967E-1,1.366750002E-1,-3.526875079E-1
1.896048992E0,-1.816374958E-1,9.941250086E-2,-4.602124989E-1
1.898582759E0,-1.901624948E-1,-3.355000168E-2,-5.922124982E-1
1.901116376E0,-1.933249980E-1,-8.359999955E-2,-7.155500054E-1
1.903650143E0,-1.773750037E-1,1.512499992E-3,-6.901124716E-1
1.906183761E0,-1.847999990E-1,8.566249907E-2,-6.538124681E-1
1.908717528E0,-1.996500045E-1,9.418749809E-2,-7.049624920E-1
1.911251121E0,-1.836999953E-1,5.376249924E-2,-7.400249839E-1
1.913784889E0,-1.666499972E-1,4.413750023E-2,-7.613375187E-1
1.916318506E0,-1.688500047E-1,7.919999957E-2,-7.772874832E-1
1.918852273E0,-1.699499935E-1,1.143999994E-1,-7.826499939E-1
1.921385881E0,-1.762750000E-1,1.281500012E-1,-7.837499976E-1
1.923919648E0,-1.847999990E-1,1.357125044E-1,-7.772874832E-1
1.926453265E0,-1.953874975E-1,1.463000029E-1,-7.730249763E-1
1.928986804E0,-1.996500045E-1,1.483625025E-1,-7.666999698E-1
1.931520547E0,-1.975875050E-1,1.611499935E-1,-7.581750154E-1
1.934054164E0,-1.953874975E-1,1.909874976E-1,-7.570750117E-1
1.936587932E0,-1.933249980E-1,2.037750036E-1,-7.517125010E-1
1.939121549E0,-1.816374958E-1,1.898874938E-1,-7.229750156E-1
1.941655340E0,-1.666499972E-1,1.909874976E-1,-6.102250218E-1
1.944188958E0,-1.986874938E-1,1.442375034E-1,-5.761250257E-1
1.946722725E0,-2.167000026E-1,8.249999583E-2,-6.975374818E-1
1.949256342E0,-1.784749925E-1,9.074999951E-3,-8.017625213E-1
1.951790096E0,-1.230624989E-1,-6.655000150E-2,-8.794500232E-1
1.954323713E0,-7.837499678E-2,-1.132999957E-1,-9.348624945E-1
1.956857480E0,-6.022499874E-2,-1.570249945E-1,-9.508125186E-1
1.959391098E0,-4.963750020E-2,-2.080374956E-1,-9.305999875E-1
1.961924869E0,-4.427500069E-2,-2.389750034E-1,-8.964999914E-1
1.964458486E0,-4.111250117E-2,-2.569875121E-1,-8.538749814E-1
1.966992025E0,-4.537500069E-2,-2.697750032E-1,-8.113874793E-1
1.969525792E0,-5.279999971E-2,-2.771999836E-1,-7.752249837E-1
1.972059648E0,-5.183750018E-2,-2.686749995E-1,-7.336999774E-1
1.974593265E0,-4.221250117E-2,-2.017125040E-1,-7.070249915E-1
1.977126804E0,-1.663750038E-2,-8.249999583E-2,-5.911124945E-1
1.979660571E0,-4.853750020E-2,-3.355000168E-2,-3.867875040E-1
1.982194175E0,-1.560624987E-1,-8.992499858E-2,-4.463250041E-1
1.984727942E0,-1.975875050E-1,-1.208624989E-1,-6.133875251E-1
1.987261559E0,-1.751749963E-1,-1.505624950E-1,-7.347999811E-1
1.989795326E0,-1.623875052E-1,-1.676124930E-1,-8.060249686E-1
1.992328934E0,-1.486375034E-1,-1.516624987E-1,-8.017625213E-1
1.994862701E0,-1.549624950E-1,-1.410750002E-1,-7.635374665E-1
1.997396318E0,-1.720124930E-1,-1.155000031E-1,-7.145875096E-1
1.999930086E0,-1.827374995E-1,-6.544999778E-2,-6.495500207E-1
2.002463693E0,-1.922249943E-1,-1.443750039E-2,-5.985375047E-1
2.004997460E0,-1.944250017E-1,7.287500054E-2,-5.431249738E-1
2.007531078E0,-1.794375032E-1,1.728374958E-1,-3.942124844E-1
2.010064845E0,-2.103749961E-1,2.271499932E-1,-1.995124966E-1
2.012598438E0,-2.954874933E-1,2.006125003E-1,-2.356749922E-1
2.015131977E0,-3.412750065E-1,1.494625062E-1,-3.942124844E-1
2.017665744E0,-3.040125072E-1,1.101374999E-1,-5.251125097E-1
2.020199590E0,-2.400749922E-1,1.132999957E-1,-5.836874843E-1
2.022733150E0,-2.124374956E-1,7.067500055E-2,-5.592125058E-1
2.025266994E0,-2.081750035E-1,6.544999778E-2,-5.102624893E-1
2.027800534E0,-2.050125003E-1,1.027124971E-1,-4.452250004E-1
2.030334150E0,-1.986874938E-1,1.324124932E-1,-3.803249896E-1
2.032867937E0,-1.859000027E-1,1.526249945E-1,-3.388000131E-1
2.035401554E0,-1.677500010E-1,1.526249945E-1,-3.133625090E-1
2.037935322E0,-1.539999992E-1,1.537249982E-1,-3.111625016E-1
2.040468939E0,-1.432749927E-1,1.451999992E-1,-3.100624979E-1
2.043002682E0,-1.390125006E-1,1.271875054E-1,-2.909500003E-1
2.045536346E0,-1.401125044E-1,1.175625026E-1,-2.601499856E-1
2.048070025E0,-1.549624950E-1,1.207249984E-1,-2.186249942E-1
2.050662990E0,-1.677500010E-1,1.164624989E-1,-1.739374995E-1
2.053137453E0,-1.784749925E-1,1.175625026E-1,-1.227874979E-1
2.055671067E0,-1.879625022E-1,1.451999992E-1,-7.067500055E-2
2.058204836E0,-1.944250017E-1,1.835625023E-1,-7.837500423E-3
2.060738460E0,-1.975875050E-1,2.219250053E-1,7.823749632E-2
2.063271999E0,-2.092749923E-1,2.697750032E-1,1.230624989E-1
2.065805768E0,-2.103749961E-1,3.357749879E-1,1.314499974E-1
2.068339384E0,-2.305874974E-1,3.367374837E-1,1.208624989E-1
2.070873139E0,-2.571249902E-1,2.835249901E-1,1.237499993E-2
2.073406985E0,-2.528625131E-1,2.473624945E-1,-1.036750004E-1
2.075940525E0,-2.167000026E-1,2.091374993E-1,-1.579875052E-1
2.078474141E0,-1.986874938E-1,1.867250055E-1,-1.611499935E-1
2.081007932E0,-1.944250017E-1,1.963499933E-1,-1.270499974E-1
2.083541549E0,-1.911250055E-1,2.080374956E-1,-7.603749633E-2
2.086075317E0,-1.805374920E-1,2.165624946E-1,-3.877500072E-2
2.088608934E0,-1.666499972E-1,2.228875011E-1,-2.062499896E-2
2.091142705E0,-1.475374997E-1,2.219250053E-1,-1.746249944E-2
2.093676323E0,-1.326874942E-1,2.228875011E-1,-1.856249943E-2
2.096210090E0,-1.199000031E-1,2.176624984E-1,-2.804999985E-2
2.098743707E0,-1.060125008E-1,2.080374956E-1,-3.987500072E-2
2.101277251E0,-9.542500228E-2,2.006125003E-1,-4.083750024E-2
2.103811095E0,-8.153750002E-2,1.963499933E-1,-4.413750023E-2
2.106344864E0,-7.301250100E-2,1.931875050E-1,-5.582499877E-2
2.108878482E0,-6.558749825E-2,1.856250018E-1,-7.809999585E-2
2.111412020E0,-5.609999970E-2,1.750375032E-1,-9.515000135E-2
2.113945787E0,-5.279999971E-2,1.676124930E-1,-1.036750004E-1
2.116479405E0,-5.609999970E-2,1.654125005E-1,-1.132999957E-1
2.119013172E0,-5.499999970E-2,1.654125005E-1,-1.238875017E-1
2.121546775E0,-6.242499873E-2,1.622499973E-1,-1.344749928E-1
2.124080619E0,-7.947500050E-2,1.633500010E-1,-1.387374997E-1
2.126614160E0,-1.071124971E-1,1.718750000E-1,-1.344749928E-1
2.129147927E0,-1.390125006E-1,1.803999990E-1,-1.249874979E-1
2.131681559E0,-1.762750000E-1,1.909874976E-1,-1.142624989E-1
2.134215326E0,-2.209624946E-1,1.963499933E-1,-9.941250086E-2
2.136748943E0,-2.550624907E-1,2.006125003E-1,-1.057374999E-1
2.139282710E0,-2.838000059E-1,1.941500008E-1,-1.099999994E-1
2.141816318E0,-3.145999908E-1,1.846625060E-1,-1.153625026E-1
2.144350085E0,-3.381125033E-1,1.782000065E-1,-1.313125044E-1
2.146883702E0,-3.550249934E-1,1.676124930E-1,-1.387374997E-1
2.149417470E0,-3.720749915E-1,1.537249982E-1,-1.537249982E-1
2.151951073E0,-3.880249858E-1,1.431374997E-1,-1.771000028E-1
2.154484612E0,-3.954499960E-1,1.399749964E-1,-2.047374994E-1
2.157018456E0,-3.987500072E-1,1.292500049E-1,-2.228875011E-1
2.159552225E0,-4.030124843E-1,1.090374961E-1,-2.408999950E-1
2.162085837E0,-4.008125067E-1,9.198749810E-2,-2.484624982E-1
2.164619376E0,-3.922874928E-1,7.713750005E-2,-2.547875047E-1
2.167153143E0,-3.752374947E-1,6.971249729E-2,-2.696374953E-1
2.169686760E0,-3.540624976E-1,6.751249731E-2,-2.824249864E-1
2.172220514E0,-3.242250085E-1,6.228749827E-2,-2.846249938E-1
2.174754131E0,-3.018124998E-1,4.523750022E-2,-2.750000060E-1
2.177287898E0,-2.838000059E-1,3.024999984E-2,-2.761000097E-1
2.179821516E0,-2.528625131E-1,4.303750023E-2,-2.835249901E-1
2.182355307E0,-2.155999988E-1,4.729999974E-2,-2.462625057E-1
2.184888924E0,-1.592250019E-1,1.079374999E-1,-1.090374961E-1
2.187422692E0,-1.518000066E-1,1.186624989E-1,2.296249941E-2
2.189956309E0,-1.634874940E-1,1.005124971E-1,-1.539999992E-2
2.192490066E0,-1.326874942E-1,1.079374999E-1,-8.346249908E-2
2.195023684E0,-1.156374961E-1,4.949999973E-2,-1.515250057E-1
2.197557451E0,-9.652499855E-2,-3.891250119E-2,-2.004749924E-1
2.200091068E0,-6.778749824E-2,-2.749999985E-3,-2.334749997E-1
2.202624597E0,-3.478749841E-2,4.207500070E-2,-2.037750036E-1
2.205158364E0,-4.331250116E-2,2.392499894E-2,-1.739374995E-1
2.207692210E0,-3.904999793E-2,7.067500055E-2,-1.632124931E-1
2.210225750E0,-2.406249940E-2,1.357125044E-1,-1.600500047E-1
2.212759624E0,-4.949999973E-3,1.931875050E-1,-1.568875015E-1
2.215293164E0,1.526249945E-2,2.356749922E-1,-1.622499973E-1
2.217826780E0,2.268750034E-2,2.803624868E-1,-1.802625060E-1
2.220360547E0,2.488750033E-2,3.304125071E-1,-1.834249943E-1
2.222894164E0,2.694999985E-2,3.889875114E-1,-1.557874978E-1
2.225427931E0,3.547500074E-2,4.911499918E-1,-8.236250281E-2
2.227961549E0,4.606249928E-2,6.539499760E-1,7.617499679E-2
2.230495316E0,2.268750034E-2,7.954375148E-1,1.527625024E-1
2.233028943E0,-3.162499890E-2,9.092875123E-1,8.896250278E-2
2.235562711E0,-6.875000149E-2,9.083250165E-1,-9.941250086E-2
2.238096328E0,-6.558749825E-2,8.688625097E-1,-3.068999946E-1
2.240630095E0,-2.736249939E-2,8.518124819E-1,-4.027374983E-1
2.243163703E0,-3.575000167E-2,7.848500013E-1,-4.059000015E-1
2.245697470E0,-2.516249940E-2,8.071249723E-1,-3.196874857E-1
2.248231087E0,-1.031249948E-2,9.029625058E-1,-6.104999781E-2
2.250764855E0,-4.427500069E-2,1.019012451E0,9.638749808E-2
2.253298352E0,-8.153750002E-2,1.157337546E0,5.279999971E-2
2.255831965E0,-1.315875053E-1,1.108387470E0,-1.335124969E-1
2.258365812E0,-1.432749927E-1,9.784500003E-1,-3.548874855E-1
2.260899581E0,-1.167374998E-1,9.072250128E-1,-4.824874997E-1
2.263433130E0,-1.230624989E-1,8.327000141E-1,-5.112249851E-1
2.265966974E0,-1.443749964E-1,8.113874793E-1,-4.910124838E-1
2.268500515E0,-1.603250057E-1,8.284375072E-1,-4.452250004E-1
2.271034130E0,-1.805374920E-1,8.338000178E-1,-3.506250083E-1
2.273567883E0,-2.092749923E-1,8.551124930E-1,-1.121999994E-1
2.276101501E0,-2.528625131E-1,9.646999836E-1,1.663750038E-2
2.278635268E0,-2.932874858E-1,1.073187470E0,-6.531249732E-2
2.281168886E0,-3.082749844E-1,1.089137435E0,-1.952500045E-1
2.283702677E0,-3.167999983E-1,1.072224975E0,-3.346749842E-1
2.286236294E0,-3.305499852E-1,1.006224990E0,-4.377999902E-1
2.288770061E0,-3.614875078E-1,9.604374766E-1,-4.921124876E-1
2.291303679E0,-3.731749952E-1,9.710249901E-1,-4.772624969E-1
2.293837432E0,-3.806000054E-1,9.732249975E-1,-4.261125028E-1
2.296371049E0,-4.072749913E-1,9.689624906E-1,-3.836250007E-1
2.298904817E0,-4.295499921E-1,9.689624906E-1,-3.793624938E-1
2.301438434E0,-4.338124990E-1,9.849125147E-1,-3.962749839E-1
2.303971967E0,-4.295499921E-1,9.337624907E-1,-3.984749913E-1
2.306505812E0,-4.274874926E-1,8.603374958E-1,-3.962749839E-1
2.309039352E0,-4.178625047E-1,8.273375034E-1,-3.782624900E-1
2.311573196E0,-4.104374945E-1,7.902125120E-1,-3.441624939E-1
2.314106742E0,-4.008125067E-1,7.453874946E-1,-3.068999946E-1
2.316640586E0,-3.891249895E-1,7.017999887E-1,-2.696374953E-1
2.319174126E0,-3.731749952E-1,6.613749862E-1,-2.334749997E-1
2.321707894E0,-3.540624976E-1,6.315374970E-1,-2.069374919E-1
2.324241516E0,-3.338499963E-1,6.070625186E-1,-1.771000028E-1
2.326775283E0,-3.136374950E-1,5.825874805E-1,-1.430000067E-1
2.329308901E0,-2.912249863E-1,5.666375160E-1,-1.057374999E-1
2.331842668E0,-2.710124850E-1,5.464249849E-1,-6.435000151E-2
2.334376313E0,-2.561624944E-1,5.315750241E-1,-3.024999984E-2
2.336910080E0,-2.476374954E-1,5.241500139E-1,1.127499994E-2
2.339443698E0,-2.380124927E-1,5.284125209E-1,5.059999973E-2
2.341977465E0,-2.316875011E-1,5.400999784E-1,8.786249906E-2
2.344511011E0,-2.252250016E-1,5.581125021E-1,1.240250021E-1
2.347044855E0,-2.146375030E-1,5.740625262E-1,1.538625062E-1
2.349578472E0,-2.061125040E-1,5.953750014E-1,1.825999916E-1
2.352112239E0,-1.996500045E-1,6.241124868E-1,2.113374919E-1
2.354645857E0,-2.029500008E-1,6.571124792E-1,2.421374917E-1
2.357179395E0,-2.146375030E-1,7.006999850E-1,2.741749883E-1
2.359713239E0,-2.316875011E-1,7.518500090E-1,3.018124998E-1
2.362246780E0,-2.518999875E-1,8.061624765E-1,3.294500113E-1
2.364780600E0,-2.721124887E-1,8.784874678E-1,3.518624902E-1
2.367314140E0,-2.932874858E-1,9.604374766E-1,3.720749915E-1
2.369847908E0,-3.167999983E-1,1.044450045E0,3.900874853E-1
2.372381525E0,-3.370124996E-1,1.133824944E0,4.093374908E-1
2.374915292E0,-3.561249971E-1,1.237087488E0,4.262500107E-1
2.377448910E0,-3.752374947E-1,1.362625003E0,4.444000125E-1
2.379982677E0,-3.837625086E-1,1.420099974E0,4.751999974E-1
2.382516294E0,-3.902249932E-1,1.459562540E0,4.911499918E-1
2.385050052E0,-3.870624900E-1,1.537250042E0,4.965125024E-1
2.387583669E0,-3.859624863E-1,1.611775041E0,5.007749796E-1
2.390117436E0,-3.902249932E-1,1.670212507E0,5.007749796E-1
2.392651054E0,-3.922874928E-1,1.723425031E0,5.029749870E-1
2.395184826E0,-3.870624900E-1,1.757524967E0,4.933499992E-1
2.397718366E0,-3.806000054E-1,1.772374988E0,4.774000049E-1
2.400252210E0,-3.689124882E-1,1.788324952E0,4.529249966E-1
2.402785828E0,-3.455374837E-1,1.794787526E0,4.273499846E-1
2.405319600E0,-3.231250048E-1,1.785162449E0,4.017750025E-1
2.407853218E0,-3.018124998E-1,1.759587526E0,3.763374984E-1
2.410386756E0,-2.880625129E-1,1.714900017E0,3.570874929E-1
2.412920523E0,-2.752749920E-1,1.649999976E0,3.900874853E-1
2.415454165E0,-2.752749920E-1,1.564887524E0,6.487249732E-1
2.417987932E0,-2.730749846E-1,1.717100024E0,6.529874802E-1
2.420521778E0,-2.901250124E-1,1.762887478E0,3.752374947E-1
2.423055318E0,-2.486000061E-1,1.602149963E0,1.698125005E-1
2.425588934E0,-1.699499935E-1,1.514837503E0,9.748750180E-2
2.428122701E0,-1.219625026E-1,1.504250050E0,1.027124971E-1
2.430656318E0,-1.145374998E-1,1.463824987E0,1.304875016E-1
2.433190086E0,-1.134374961E-1,1.381875038E0,1.559250057E-1
2.435723708E0,-9.748750180E-2,1.312712550E0,1.570249945E-1
2.438257475E0,-6.984999776E-2,1.256199956E0,1.379124969E-1
2.440791093E0,-5.389999971E-2,1.196662545E0,1.155000031E-1
2.443324860E0,-5.073750019E-2,1.162562490E0,9.955000132E-2
2.445858448E0,-5.183750018E-2,1.146612525E0,9.955000132E-2
2.448392216E0,-6.778749824E-2,1.124337435E0,1.155000031E-1
2.450925833E0,-8.896250278E-2,1.117874980E0,1.379124969E-1
2.453459600E0,-1.082125008E-1,1.126399994E0,1.538625062E-1
2.455993218E0,-1.347499937E-1,1.129562497E0,1.634874940E-1
2.458526985E0,-1.582625061E-1,1.132862449E0,1.623875052E-1
2.461060602E0,-1.731124967E-1,1.141387463E0,1.644500047E-1
2.463594369E0,-1.859000027E-1,1.159399986E0,1.623875052E-1
2.466127929E0,-1.953874975E-1,1.181812525E0,1.581249982E-1
2.468661542E0,-2.029500008E-1,1.204087496E0,1.559250057E-1
2.471195312E0,-2.092749923E-1,1.208349943E0,1.538625062E-1
2.473729158E0,-2.135374993E-1,1.197762489E0,1.399749964E-1
2.476262693E0,-2.092749923E-1,1.181812525E0,1.165999994E-1
2.478796309E0,-2.018499970E-1,1.172187448E0,8.359999955E-2
2.481330076E0,-1.847999990E-1,1.145650029E0,6.132499874E-2
2.483863693E0,-1.720124930E-1,1.088174939E0,4.743750021E-2
2.486397489E0,-1.634874940E-1,1.042387486E0,2.832499892E-2
2.488931107E0,-1.528999954E-1,9.860125184E-1,2.749999985E-3
2.491464874E0,-1.390125006E-1,9.168499708E-1,-1.539999992E-2
2.493998491E0,-1.273249984E-1,8.486499786E-1,-3.451250121E-2
2.496532268E0,-1.199000031E-1,7.837499976E-1,-5.472499877E-2
2.499065885E0,-1.145374998E-1,7.125250101E-1,-7.383749634E-2
2.501599652E0,-1.113749966E-1,6.389625072E-1,-9.404999763E-2
2.504133270E0,-1.093124971E-1,5.666375160E-1,-1.132999957E-1
2.506667023E0,-1.093124971E-1,5.028374791E-1,-1.153625026E-1
2.509200640E0,-1.156374961E-1,4.431625009E-1,-1.142624989E-1
2.511734408E0,-1.262249947E-1,3.942124844E-1,-1.090374961E-1
2.514268025E0,-1.390125006E-1,3.517250121E-1,-9.941250086E-2
2.516801544E0,-1.486375034E-1,3.187249899E-1,-8.456250280E-2
2.519335312E0,-1.518000066E-1,2.953499854E-1,-6.751249731E-2
2.521869158E0,-1.623875052E-1,2.771999836E-1,-4.936249927E-2
2.524402775E0,-1.731124967E-1,2.612499893E-1,-2.392499894E-2
2.526936352E0,-1.762750000E-1,2.547875047E-1,-2.612499986E-3
2.529470196E0,-1.762750000E-1,2.538250089E-1,1.443750039E-2
2.532003736E0,-1.847999990E-1,2.547875047E-1,3.148749843E-2
2.534537504E0,-1.868624985E-1,2.473624945E-1,3.575000167E-2
2.537071088E0,-1.868624985E-1,2.484624982E-1,3.355000168E-2
2.539604855E0,-1.836999953E-1,2.547875047E-1,3.038750030E-2
2.542138473E0,-1.784749925E-1,2.644124925E-1,2.186249942E-2
2.544672240E0,-1.742125005E-1,2.708750069E-1,1.127499994E-2
2.547205866E0,-1.709125042E-1,2.782999873E-1,-2.612499986E-3
2.549739633E0,-1.666499972E-1,2.846249938E-1,-1.539999992E-2
2.552273251E0,-1.634874940E-1,2.888875008E-1,-1.966249943E-2
2.554807018E0,-1.731124967E-1,2.963125110E-1,-1.209999993E-2
2.557340616E0,-1.784749925E-1,2.996124923E-1,-1.113750041E-2
2.559874384E0,-1.859000027E-1,3.027749956E-1,-8.937500417E-3
2.562408001E0,-2.029500008E-1,2.996124923E-1,-8.937500417E-3
2.564941768E0,-2.220624983E-1,2.931500077E-1,-1.209999993E-2
2.567475371E0,-2.348500043E-1,2.835249901E-1,-2.172499895E-2
2.570008909E0,-2.391124964E-1,2.729375064E-1,-3.767500073E-2
2.572542676E0,-2.454375029E-1,2.601499856E-1,-5.582499877E-2
2.575076523E0,-2.465374917E-1,2.414499968E-1,-7.576250285E-2
2.577610155E0,-2.454375029E-1,2.202749997E-1,-8.964999765E-2
2.580143693E0,-2.433750033E-1,1.924999952E-1,-9.501250088E-2
2.582677461E0,-2.380124927E-1,1.595000029E-1,-9.817499667E-2
2.585211078E0,-2.326499969E-1,1.222374961E-1,-1.024374962E-1
2.587744826E0,-2.348500043E-1,7.864999771E-2,-9.817499667E-2
2.590278444E0,-2.316875011E-1,3.932499886E-2,-8.855000138E-2
2.592812211E0,-2.337500006E-1,-1.374999993E-4,-7.053750008E-2
2.595345828E0,-2.348500043E-1,-3.836249933E-2,-4.276249930E-2
2.597879591E0,-2.337500006E-1,-7.136250287E-2,-1.402499992E-2
2.600413208E0,-2.337500006E-1,-1.000999957E-1,1.897500083E-2
2.602946975E0,-2.369125038E-1,-1.234750003E-1,4.977500066E-2
2.605480593E0,-2.369125038E-1,-1.447875053E-1,7.424999774E-2
2.608014365E0,-2.433750033E-1,-1.597750038E-1,9.446249902E-2
2.610547982E0,-2.528625131E-1,-1.639000028E-1,1.115124971E-1
2.613081749E0,-2.635875046E-1,-1.586750001E-1,1.296624988E-1
2.615615367E0,-2.752749920E-1,-1.447875053E-1,1.465750039E-1
2.618149119E0,-2.838000059E-1,-1.225124970E-1,1.700875014E-1
2.620682736E0,-2.932874858E-1,-9.047500044E-2,1.923625022E-1
2.623216504E0,-3.029125035E-1,-4.798749834E-2,2.190375030E-1
2.625750044E0,-3.082749844E-1,2.062499989E-3,2.529999912E-1
2.628283845E0,-3.134999871E-1,5.733750015E-2,2.860000134E-1
2.630817386E0,-3.188624978E-1,1.244374961E-1,3.221625090E-1
2.633351230E0,-3.273875117E-1,1.958000064E-1,3.584625125E-1
2.635884770E0,-3.316499889E-1,2.659249902E-1,3.935250044E-1
2.638418391E0,-3.390749991E-1,3.436124921E-1,4.254249930E-1
2.640952158E0,-3.465000093E-1,4.192374945E-1,4.541625082E-1
2.643485775E0,-3.475999832E-1,4.904625118E-1,4.797374904E-1
2.646019543E0,-3.518624902E-1,5.618249774E-1,5.073750019E-1
2.648553131E0,-3.540624976E-1,6.235625148E-1,5.255249739E-1
2.651086898E0,-3.583250046E-1,6.863999963E-1,5.435374975E-1
2.653620516E0,-3.614875078E-1,7.448375225E-1,5.585250258E-1
2.656154283E0,-3.614875078E-1,7.959874868E-1,5.691124797E-1
2.658687890E0,-3.592875004E-1,8.427374959E-1,5.765374899E-1
2.661221429E0,-3.550249934E-1,8.779374957E-1,5.819000006E-1
2.663755273E0,-3.475999832E-1,9.044749737E-1,5.839625001E-1
2.666289042E0,-3.381125033E-1,9.257875085E-1,5.850625038E-1
2.668822646E0,-3.231250048E-1,9.289500117E-1,5.819000006E-1
2.671356413E0,-3.051125109E-1,9.129999876E-1,5.839625001E-1
2.673889953E0,-2.932874858E-1,8.874250054E-1,5.861625075E-1
2.676423797E0,-2.858625054E-1,8.672124743E-1,5.915250182E-1
2.678957352E0,-2.773374915E-1,8.523625135E-1,5.946875215E-1
2.681491196E0,-2.688125074E-1,8.353124857E-1,5.946875215E-1
2.684024737E0,-2.656500041E-1,8.310499787E-1,5.935875177E-1
2.686558581E0,-2.656500041E-1,8.310499787E-1,5.999125242E-1
2.689092116E0,-2.678500116E-1,8.278874755E-1,6.032124758E-1
2.691625732E0,-2.656500041E-1,8.310499787E-1,6.041749716E-1
2.694159499E0,-2.667500079E-1,8.458999991E-1,6.021124721E-1
2.696693116E0,-2.678500116E-1,8.672124743E-1,5.999125242E-1
2.699226883E0,-2.710124850E-1,8.799999952E-1,5.882250071E-1
2.701760501E0,-2.710124850E-1,8.885250092E-1,5.659499764E-1
2.704294268E0,-2.710124850E-1,8.981499672E-1,5.414749980E-1
2.706827885E0,-2.688125074E-1,9.183624983E-1,5.073750019E-1
2.709361648E0,-2.635875046E-1,9.406374693E-1,4.765749872E-1
2.711895265E0,-2.645500004E-1,9.556249976E-1,4.393124878E-1
2.714428804E0,-2.613874972E-1,9.641500115E-1,4.041124880E-1
2.716962648E0,-2.635875046E-1,9.608500004E-1,3.690499961E-1
2.719496446E0,-2.613874972E-1,9.565874934E-1,3.371500075E-1
2.722030063E0,-2.539624870E-1,9.556249976E-1,3.009875119E-1
2.724563831E0,-2.348500043E-1,9.747374654E-1,2.657875121E-1
2.727097448E0,-2.198625058E-1,9.886249900E-1,2.338874936E-1
2.729630991E0,-2.188999951E-1,9.693750143E-1,2.105125040E-1
2.732164759E0,-2.135374993E-1,9.673125148E-1,1.945624948E-1
2.734698376E0,-1.986874938E-1,9.810624719E-1,1.764124930E-1
2.737232220E0,-1.805374920E-1,9.992125034E-1,1.551000029E-1
2.739766019E0,-1.666499972E-1,1.015162468E0,1.328250021E-1
2.742299560E0,-1.539999992E-1,1.033312440E0,1.040875018E-1
2.744833175E0,-1.432749927E-1,1.051324964E0,7.315000147E-2
2.747366943E0,-1.295250058E-1,1.067275047E0,4.661250114E-2
2.749900569E0,-1.134374961E-1,1.085425019E0,2.419999987E-2
2.752434336E0,-1.091749966E-1,1.103437543E0,1.924999990E-3
2.754967954E0,-1.134374961E-1,1.120487452E0,-1.828750037E-2
2.757501721E0,-1.230624989E-1,1.131212473E0,-4.606249928E-2
2.760035353E0,-1.379124969E-1,1.132174969E0,-6.943749636E-2
2.762569120E0,-1.592250019E-1,1.134374976E0,-8.744999766E-2
2.765102738E0,-1.677500010E-1,1.140699983E0,-1.044999957E-1
2.767636505E0,-1.571625024E-1,1.164212465E0,-1.183874980E-1
2.770170122E0,-1.443749964E-1,1.167374969E0,-1.258125007E-1
2.772703890E0,-1.412124932E-1,1.150324941E0,-1.332374960E-1
2.775237507E0,-1.347499937E-1,1.141800046E0,-1.311749965E-1
2.777771274E0,-1.273249984E-1,1.148262501E0,-1.289750040E-1
2.780304901E0,-1.295250058E-1,1.124750018E0,-1.588124931E-1
2.782838668E0,-1.315875053E-1,1.071537495E0,-1.992374957E-1
2.785372208E0,-1.315875053E-1,1.015162468E0,-2.194499969E-1
2.787905822E0,-1.401125044E-1,9.545249939E-1,-2.343000025E-1
2.790439683E0,-1.401125044E-1,8.907250166E-1,-2.897124887E-1
2.792973452E0,-1.315875053E-1,8.076750040E-1,-3.748250008E-1
2.795507070E0,-1.199000031E-1,6.969875097E-1,-4.291374981E-1
2.798040608E0,-1.124750003E-1,6.011499763E-1,-4.716250002E-1
2.800574399E0,-1.102750003E-1,5.054500103E-1,-5.227749944E-1
2.803108017E0,-1.091749966E-1,3.840374947E-1,-5.631999969E-1
2.805641784E0,-1.124750003E-1,2.510749996E-1,-5.950999856E-1
2.808175401E0,-1.167374998E-1,1.255374998E-1,-6.206749678E-1
2.810709259E0,-1.167374998E-1,4.124999978E-3,-6.397874951E-1
2.813242800E0,-1.156374961E-1,-1.117874980E-1,-6.440500021E-1
2.815776567E0,-1.156374961E-1,-2.224749923E-1,-6.397874951E-1
2.818310185E0,-1.336500049E-1,-3.086875081E-1,-6.345624924E-1
2.820843947E0,-1.560624987E-1,-3.693250120E-1,-6.227374673E-1
2.823377564E0,-1.784749925E-1,-4.130499959E-1,-5.993624926E-1
2.825911331E0,-2.007499933E-1,-4.384875000E-1,-5.728250146E-1
2.828444949E0,-2.198625058E-1,-4.501749873E-1,-5.526124835E-1
2.830978726E0,-2.283875048E-1,-4.662624896E-1,-5.355625153E-1
2.833512343E0,-2.305874974E-1,-4.800125062E-1,-5.153499842E-1
2.836046111E0,-2.283875048E-1,-4.970625043E-1,-4.951374829E-1
2.838579728E0,-2.188999951E-1,-5.204374790E-1,-4.727250040E-1
2.841113481E0,-2.124374956E-1,-5.513749719E-1,-4.525125027E-1
2.843647099E0,-2.146375030E-1,-5.801125169E-1,-4.471499920E-1
2.846180866E0,-2.263250053E-1,-6.034874916E-1,-4.397250116E-1
2.848714483E0,-2.433750033E-1,-6.258999705E-1,-4.397250116E-1
2.851248246E0,-2.571249902E-1,-6.513375044E-1,-4.514124990E-1
2.853781786E0,-2.593249977E-1,-6.832374930E-1,-4.663999975E-1
2.856315399E0,-2.486000061E-1,-7.332875133E-1,-4.706625044E-1
2.858849169E0,-2.274249941E-1,-8.003875017E-1,-4.652999938E-1
2.861382810E0,-1.996500045E-1,-8.641874790E-1,-4.450874925E-1
2.863916577E0,-1.709125042E-1,-9.355499744E-1,-4.311999977E-1
2.866450195E0,-1.464374959E-1,-1.013237476E0,-4.226749837E-1
2.868983962E0,-1.252624989E-1,-1.102612495E0,-4.174500108E-1
2.871517569E0,-1.060125008E-1,-1.186625004E0,-4.174500108E-1
2.874051337E0,-7.837499678E-2,-1.246299982E0,-4.089249969E-1
2.876584954E0,-6.875000149E-2,-1.288787484E0,-4.003999829E-1
2.879118721E0,-7.631249726E-2,-1.335675001E0,-3.887124956E-1
2.881652325E0,-8.153750002E-2,-1.355887532E0,-3.801875114E-1
2.884186092E0,-1.082125008E-1,-1.378162503E0,-3.609375060E-1
2.886719709E0,-1.634874940E-1,-1.428212523E0,-3.355000019E-1
2.889253476E0,-2.018499970E-1,-1.400575042E0,-3.152875006E-1
2.891787098E0,-2.231625021E-1,-1.329212546E0,-2.939749956E-1
2.894320865E0,-2.369125038E-1,-1.263350010E0,-2.492875010E-1
2.896854482E0,-2.411749959E-1,-1.180299997E0,-1.949750036E-1
2.899388250E0,-2.528625131E-1,-1.080199957E0,-1.428624988E-1
2.901921858E0,-2.730749846E-1,-9.780374765E-1,-9.927500039E-2
2.904455625E0,-2.890250087E-1,-8.673499823E-1,-5.775000155E-2
2.906989243E0,-3.060750067E-1,-7.727500200E-1,-2.364999987E-2
2.909523010E0,-3.220250010E-1,-6.843374968E-1,3.987499978E-3
2.912056564E0,-3.305499852E-1,-5.949624777E-1,3.382499889E-2
2.914590409E0,-3.370124996E-1,-5.098500252E-1,4.977500066E-2
2.917123949E0,-3.497999907E-1,-4.384875000E-1,4.551250115E-2
2.919657564E0,-3.486999869E-1,-3.693250120E-1,6.146249920E-2
2.922191400E0,-3.316499889E-1,-3.140499890E-1,9.129999578E-2
2.924724940E0,-3.114374876E-1,-2.810499966E-1,1.135749966E-1
2.927258707E0,-2.965874970E-1,-2.374625057E-1,1.220999956E-1
2.929792325E0,-2.827000022E-1,-1.991000026E-1,1.211374998E-1
2.932326101E0,-2.593249977E-1,-1.766874939E-1,1.359875053E-1
2.934859718E0,-2.231625021E-1,-1.639000028E-1,1.476749927E-1
2.937393486E0,-1.890625060E-1,-1.458874941E-1,1.519374996E-1
2.939927103E0,-1.656875014E-1,-1.310375035E-1,1.380500048E-1
2.942460870E0,-1.432749927E-1,-1.362625062E-1,1.328250021E-1
2.944994488E0,-1.124750003E-1,-1.427250057E-1,1.348875016E-1
2.947528255E0,-9.006249905E-2,-1.416250020E-1,1.359875053E-1
2.950061872E0,-7.095000148E-2,-1.319999993E-1,1.263625026E-1
2.952595649E0,-5.499999970E-2,-1.352999955E-1,1.211374998E-1
2.955129267E0,-3.575000167E-2,-1.384624988E-1,1.231999993E-1
2.957663034E0,-2.199999988E-2,-1.256749928E-1,1.274625063E-1
2.960196651E0,-1.663750038E-2,-1.043625027E-1,1.254000068E-1
2.962730390E0,-1.979999989E-2,-8.415000141E-2,1.285624951E-1
2.965263930E0,-2.406249940E-2,-5.004999787E-2,1.391499937E-1
2.967797544E0,-3.575000167E-2,-4.399999976E-3,1.582625061E-1
2.970331390E0,-4.647500068E-2,3.932499886E-2,1.753125042E-1
2.972865144E0,-5.279999971E-2,8.401250094E-2,1.870000064E-1
2.975398761E0,-5.926249921E-2,1.361249983E-1,1.891999990E-1
2.977932300E0,-6.558749825E-2,1.904374957E-1,1.912624985E-1
2.980466067E0,-7.095000148E-2,2.414499968E-1,2.008875012E-1
2.982999684E0,-7.521250099E-2,2.946625054E-1,2.179374993E-1
2.985533452E0,-7.411249727E-2,3.458124995E-1,2.296250015E-1
2.988067069E0,-6.984999776E-2,3.819749951E-1,2.253624946E-1
2.990600836E0,-6.448750198E-2,4.149749875E-1,2.157374918E-1
2.993134677E0,-5.389999971E-2,4.681875110E-1,2.019875050E-1
2.995668218E0,-4.111250117E-2,5.224999785E-1,1.827374995E-1
2.998201833E0,-2.309999987E-2,5.649874806E-1,1.572999954E-1
3.000735601E0,-3.849999979E-3,6.044499874E-1,1.402499974E-1
3.003269242E0,1.319999993E-2,6.363499761E-1,1.243000031E-1
3.005803009E0,3.437500075E-2,6.565625072E-1,1.104125008E-1
3.008336627E0,5.252499878E-2,6.554625034E-1,9.446249902E-2
3.010870394E0,7.163749635E-2,6.480374932E-1,7.315000147E-2
3.013403997E0,8.442500234E-2,6.331874728E-1,5.087500066E-2
3.015937764E0,9.184999764E-2,6.128374934E-1,3.492499888E-2
3.018471382E0,9.295000136E-2,5.937250257E-1,3.066249937E-2
3.021005149E0,8.236250281E-2,5.671874881E-1,2.323750034E-2
3.023538761E0,6.957499683E-2,5.310249925E-1,1.141249947E-2
3.026072529E0,5.362499878E-2,4.809750021E-1,-5.499999970E-3
3.028606146E0,4.399999976E-2,4.340874851E-1,-1.732499897E-2
3.031139913E0,3.767500073E-2,3.894000053E-1,-2.158750035E-2
3.033673541E0,3.231250122E-2,3.436124921E-1,-2.791249938E-2
3.036207308E0,2.584999986E-2,3.000249863E-1,-3.643750027E-2
3.038740848E0,1.636249945E-2,2.585000098E-1,-4.702499881E-2
3.041274462E0,-3.849999979E-3,2.127124965E-1,-6.297499686E-2
3.043808207E0,-3.148749843E-2,1.670625061E-1,-8.648750186E-2
3.046341922E0,-5.706249923E-2,1.275999993E-1,-1.119249985E-1
3.048884000E0,-8.373750001E-2,8.827500045E-2,-1.428624988E-1
3.051409233E0,-1.091749966E-1,5.101250112E-2,-1.758625060E-1
3.053943000E0,-1.326874942E-1,2.227500081E-2,-2.014375031E-1
3.056476616E0,-1.507000029E-1,-8.524999954E-3,-2.268749923E-1
3.059010399E0,-1.603250057E-1,-4.578749835E-2,-2.503874898E-1
3.061544014E0,-1.645874977E-1,-6.819999963E-2,-2.694999874E-1
3.064077784E0,-1.699499935E-1,-8.208750188E-2,-2.843500078E-1
3.066611401E0,-1.751749963E-1,-1.023000032E-1,-3.003000021E-1
3.069145168E0,-1.805374920E-1,-1.234750003E-1,-3.152875006E-1
3.071678786E0,-1.836999953E-1,-1.405249983E-1,-3.332999945E-1
3.074212553E0,-1.762750000E-1,-1.544124931E-1,-3.503499925E-1
3.076746170E0,-1.742125005E-1,-1.501500010E-1,-3.535124958E-1
3.079279937E0,-1.784749925E-1,-1.054624990E-1,-3.525500000E-1
3.081813555E0,-1.784749925E-1,-9.267500043E-2,-3.535124958E-1
3.084347322E0,-1.645874977E-1,-1.149500012E-1,-3.440249860E-1
3.086880939E0,-1.369500011E-1,-1.319999993E-1,-3.173500001E-1
3.089414707E0,-1.082125008E-1,-1.575749964E-1,-2.875125110E-1
3.091948324E0,-9.968750179E-2,-1.607374996E-1,-2.524499893E-1
3.094482091E0,-1.060125008E-1,-1.384624988E-1,-2.066625059E-1
3.097015709E0,-1.145374998E-1,-1.139874980E-1,-1.471250057E-1
3.099549233E0,-1.199000031E-1,-7.672499865E-2,-8.318749815E-2
3.102083077E0,-1.252624989E-1,-3.203750029E-2,-2.901249938E-2
3.104616618E0,-1.369500011E-1,1.594999991E-2,1.787500083E-2
3.107150462E0,-1.560624987E-1,7.975000143E-2,6.792499870E-2
3.109684221E0,-1.859000027E-1,1.531749964E-1,1.126125008E-1
3.112217762E0,-2.177999914E-1,2.297624946E-1,1.498750001E-1
3.114751377E0,-2.454375029E-1,3.159750104E-1,1.775124967E-1
3.117285144E0,-2.645500004E-1,3.968249857E-1,1.997874975E-1
3.119818767E0,-2.730749846E-1,4.724499881E-1,2.114749998E-1
3.122352534E0,-2.858625054E-1,5.543999672E-1,2.062499970E-1
3.124886380E0,-3.029125035E-1,6.224625111E-1,1.891999990E-1
3.127419921E0,-3.253250122E-1,6.799374819E-1,1.625249982E-1
3.129953536E0,-3.455374837E-1,7.257249951E-1,1.263625026E-1
3.132487303E0,-3.540624976E-1,7.650499940E-1,9.129999578E-2
3.135020921E0,-3.518624902E-1,8.151000142E-1,5.609999970E-2
3.137554688E0,-3.390749991E-1,8.629499674E-1,1.993750036E-2
3.140088300E0,-3.370124996E-1,8.842625022E-1,-1.938750036E-2
3.142622067E0,-3.689124882E-1,8.555250168E-1,-5.775000155E-2
3.145155685E0,-4.158000052E-1,7.895249724E-1,-1.033999994E-1
3.147689452E0,-4.338124990E-1,7.767375112E-1,-1.385999918E-1
3.150223059E0,-4.295499921E-1,7.810000181E-1,-1.502874941E-1
3.152756827E0,-4.241875112E-1,7.800375223E-1,-1.556500047E-1
3.155290444E0,-4.124999940E-1,7.724750042E-1,-1.599124968E-1
3.157824211E0,-4.008125067E-1,7.640874982E-1,-1.704999954E-1
3.160357820E0,-3.848625124E-1,7.555624843E-1,-1.779250056E-1
3.162891587E0,-3.614875078E-1,7.512999773E-1,-1.821874976E-1
3.165425204E0,-3.348124921E-1,7.405750155E-1,-1.801249981E-1
3.167958972E0,-3.082749844E-1,7.246249914E-1,-1.684374958E-1
3.170492565E0,-2.827000022E-1,7.129374743E-1,-1.502874941E-1
3.173026103E0,-2.593249977E-1,7.086749673E-1,-1.226499975E-1
3.175559871E0,-2.337500006E-1,7.149999738E-1,-8.855000138E-2
3.178093717E0,-2.039124966E-1,7.246249914E-1,-5.348749831E-2
3.180627286E0,-1.805374920E-1,7.416750193E-1,-1.086249948E-2
3.183160902E0,-1.581249982E-1,7.650499940E-1,4.124999791E-2
3.185694746E0,-1.421750039E-1,7.906249762E-1,1.018875018E-1
3.188228515E0,-1.284250021E-1,8.173000216E-1,1.678874940E-1
3.190762051E0,-1.156374961E-1,8.395749927E-1,2.435124964E-1
3.193295666E0,-1.028499976E-1,8.577250242E-1,3.254624903E-1
3.195829433E0,-8.799999952E-2,8.799999952E-1,4.158000052E-1
3.198363051E0,-7.411249727E-2,9.002124667E-1,5.179625154E-1
3.200896827E0,-6.352499872E-2,9.161624908E-1,6.308500171E-1
3.203430444E0,-5.183750018E-2,9.257875085E-1,7.585874796E-1
3.205964211E0,-3.904999793E-2,9.491624832E-1,8.628125191E-1
3.208497829E0,-2.942499891E-2,9.693750143E-1,9.341750145E-1
3.211031587E0,-2.199999988E-2,9.704750180E-1,9.873874784E-1
3.213565204E0,-2.199999988E-2,9.726749659E-1,1.041562438E0
3.216098972E0,-3.148749843E-2,9.778999686E-1,1.100137472E0
3.218632589E0,-4.963750020E-2,9.619500041E-1,1.153349996E0
3.221166322E0,-7.947500050E-2,9.235875010E-1,1.206562519E0
3.223699940E0,-1.187999994E-1,8.501625061E-1,1.241624951E0
3.226233707E0,-1.007874981E-1,8.683124781E-1,1.274624944E0
3.228767324E0,-9.652499855E-2,9.172624946E-1,1.304462552E0
3.231301087E0,-1.219625026E-1,9.076374769E-1,1.302399993E0
3.233834704E0,-1.295250058E-1,9.215250015E-1,1.273662448E0
3.236368471E0,-1.199000031E-1,9.545249939E-1,1.244925022E0
3.238902089E0,-1.156374961E-1,9.747374654E-1,1.219349980E0
3.241435870E0,-1.369500011E-1,9.704750180E-1,1.157612443E0
3.243969487E0,-1.432749927E-1,9.684125185E-1,1.056550026E0
3.246503254E0,-1.369500011E-1,9.693750143E-1,9.512249827E-1
3.249036872E0,-1.336500049E-1,9.789999723E-1,8.479624987E-1
3.251570401E0,-1.145374998E-1,1.027950048E0,7.500625253E-1
3.254104169E0,-9.322500229E-2,1.056687474E0,6.712750196E-1
3.256638015E0,-9.226249903E-2,1.024787545E0,6.074749827E-1
3.259171555E0,-8.470000327E-2,9.875249863E-1,5.670499802E-1
3.261705432E0,-7.631249726E-2,9.673125148E-1,5.383124948E-1
3.264238973E0,-7.947500050E-2,9.673125148E-1,4.934875071E-1
3.266772588E0,-6.875000149E-2,9.662125111E-1,4.765749872E-1
3.269306355E0,-4.963750020E-2,9.055749774E-1,4.956874847E-1
3.271839988E0,-4.111250117E-2,8.640499711E-1,5.307499766E-1
3.274373755E0,-4.331250116E-2,8.523625135E-1,5.776374936E-1
3.276907372E0,-5.279999971E-2,8.204625249E-1,5.935875177E-1
3.279441140E0,-5.279999971E-2,7.704125047E-1,5.680124760E-1
3.281974762E0,-5.596249923E-2,6.821374893E-1,5.053125024E-1
3.284508529E0,-4.331250116E-2,5.926250219E-1,4.179999828E-1
3.287042147E0,-2.406249940E-2,5.267624855E-1,3.264249861E-1
3.289575914E0,-3.849999979E-3,4.798749983E-1,2.370499969E-1
3.292109550E0,2.062499896E-2,4.553999901E-1,1.498750001E-1
3.294643318E0,4.716249928E-2,4.170374870E-1,6.998749822E-2
3.297176935E0,7.906249911E-2,3.830749989E-1,-6.599999964E-3
3.299710702E0,1.035374999E-1,3.745499849E-1,-9.075000137E-2
3.302244320E0,1.259499937E-1,3.521375060E-1,-1.747625023E-1
3.304778087E0,1.398375034E-1,3.233999908E-1,-2.598749995E-1
3.307311704E0,1.504250020E-1,2.957625091E-1,-3.355000019E-1
3.309845471E0,1.578499973E-1,2.595999837E-1,-4.046624899E-1
3.312379089E0,1.535875052E-1,2.138125002E-1,-4.599374831E-1
3.314912856E0,1.333750039E-1,1.648624986E-1,-4.897750020E-1
3.317446397E0,1.174250022E-1,1.275999993E-1,-5.153499842E-1
3.319980241E0,1.142624989E-1,9.033749998E-2,-5.450500250E-1
3.322513877E0,9.721250087E-2,3.079999983E-2,-5.504124761E-1
3.325047644E0,6.641250104E-2,-3.629999980E-2,-5.131499767E-1
3.327581262E0,4.509999976E-2,-5.431250110E-2,-4.951374829E-1
3.330114800E0,2.914999984E-2,-8.208750188E-2,-4.866124988E-1
3.332648581E0,1.746249944E-2,-1.416250020E-1,-4.929375052E-1
3.335182199E0,3.574999981E-3,-2.087250054E-1,-4.834499955E-1
3.337715966E0,-1.031249948E-2,-2.523125112E-1,-4.578749835E-1
3.340249812E0,-1.979999989E-2,-2.873750031E-1,-4.365625083E-1
3.342783411E0,-3.904999793E-2,-3.342624903E-1,-4.163500071E-1
3.345316949E0,-6.022499874E-2,-3.778499961E-1,-4.035624862E-1
3.347850716E0,-7.521250099E-2,-4.236375093E-1,-4.003999829E-1
3.350384334E0,-9.322500229E-2,-4.714874923E-1,-3.929750025E-1
3.352917990E0,-1.113749966E-1,-5.013250113E-1,-3.662999868E-1
3.355451607E0,-1.273249984E-1,-4.927999973E-1,-3.482874930E-1
3.357985375E0,-1.432749927E-1,-4.779500067E-1,-3.364624977E-1
3.360518992E0,-1.623875052E-1,-4.640625119E-1,-3.568125069E-1
3.363052755E0,-1.645874977E-1,-5.024250150E-1,-4.089249969E-1
3.365586373E0,-1.731124967E-1,-5.363875031E-1,-4.131875038E-1
3.368120140E0,-1.933249980E-1,-4.981625080E-1,-3.727625012E-1
3.370653757E0,-2.209624946E-1,-4.268000126E-1,-3.152875006E-1
3.373187533E0,-2.571249902E-1,-3.715249896E-1,-2.620750070E-1
3.375721151E0,-2.954874933E-1,-3.192749918E-1,-2.290749997E-1
3.378254918E0,-3.167999983E-1,-2.448875010E-1,-2.035000026E-1
3.380788535E0,-3.210625052E-1,-1.926375031E-1,-1.727000028E-1
3.383322308E0,-3.103374839E-1,-1.394249946E-1,-1.482249945E-1
3.385855925E0,-3.040125072E-1,-6.929999590E-2,-1.321374923E-1
3.388389692E0,-3.008500040E-1,-1.182499994E-2,-1.237500012E-1
3.390923310E0,-3.008500040E-1,3.189999983E-2,-1.289750040E-1
3.393456828E0,-2.943874896E-1,6.379999965E-2,-1.545500010E-1
3.395990672E0,-2.730749846E-1,8.827500045E-2,-1.801249981E-1
3.398524442E0,-2.454375029E-1,9.143749624E-2,-2.014375031E-1
3.401058059E0,-2.155999988E-1,8.291249722E-2,-2.248124927E-1
3.403591816E0,-1.879625022E-1,7.328750193E-2,-2.546499968E-1
3.406125357E0,-1.656875014E-1,5.637500063E-2,-2.822875082E-1
3.408658970E0,-1.390125006E-1,4.042499885E-2,-3.025000095E-1
3.411192739E0,-1.124750003E-1,2.859999985E-2,-3.152875006E-1
3.413726609E0,-9.432499856E-2,1.168750040E-2,-3.269749880E-1
3.416260150E0,-7.301250100E-2,-1.374999993E-4,-3.449875116E-1
3.418793994E0,-5.073750019E-2,-6.462499965E-3,-3.620375097E-1
3.421327535E0,-2.199999988E-2,-1.704999991E-2,-3.588750064E-1
3.423861141E0,5.637499969E-3,-2.351249941E-2,-3.535124958E-1
3.426394908E0,1.952499896E-2,-1.814999990E-2,-3.440249860E-1
3.428928526E0,3.547500074E-2,-7.562499959E-3,-3.280749917E-1
3.431462293E0,5.032499880E-2,5.224999972E-3,-3.110249937E-1
3.433995910E0,6.311249733E-2,8.387500420E-3,-3.056625128E-1
3.436529677E0,8.126249909E-2,-3.299999982E-3,-3.099249899E-1
3.439063295E0,1.088999957E-1,-7.562499959E-3,-3.025000095E-1
3.441597062E0,1.365374923E-1,-1.099999994E-3,-2.917749882E-1
3.444130659E0,1.695374995E-1,-3.299999982E-3,-2.684000134E-1
3.446664427E0,2.110625058E-1,-2.667500079E-2,-2.259124964E-1
3.449198044E0,2.451625019E-1,-6.710000336E-2,-1.918125004E-1
3.451731811E0,2.739000022E-1,-1.086250022E-1,-1.577125043E-1
3.454265410E0,2.898499966E-1,-1.512500048E-1,-1.258125007E-1
3.456799177E0,3.132250011E-1,-1.586750001E-1,-8.002500236E-2
3.459332794E0,3.419624865E-1,-1.883749962E-1,-2.791249938E-2
3.461866562E0,3.643749952E-1,-2.384250015E-1,1.044999994E-2
3.464400107E0,3.845874965E-1,-2.799499929E-1,4.344999790E-2
3.466933720E0,3.973749876E-1,-3.140499890E-1,6.888750196E-2
3.469467490E0,4.100250006E-1,-3.470500112E-1,9.239999950E-2
3.472001336E0,4.270749986E-1,-4.012250006E-1,9.982500225E-2
3.474534967E0,4.335374832E-1,-4.587000012E-1,9.982500225E-2
3.477068734E0,4.324375093E-1,-4.853749871E-1,1.029874980E-1
3.479602275E0,4.472874999E-1,-5.044875145E-1,1.093124971E-1
3.482135890E0,4.591124952E-1,-5.565999746E-1,9.129999578E-2
3.484669653E0,4.654375017E-1,-6.023874879E-1,6.036249921E-2
3.487203270E0,4.675000012E-1,-6.333249807E-1,2.213750035E-2
3.489737037E0,4.888125062E-1,-6.672874689E-1,-1.828750037E-2
3.492270655E0,5.164499879E-1,-7.002875209E-1,-6.723749638E-2
3.494804495E0,5.346000195E-1,-7.258625031E-1,-1.215500012E-1
3.497338035E0,5.431249738E-1,-7.705500126E-1,-1.821874976E-1
3.499871802E0,5.612750053E-1,-8.035500050E-1,-2.385624945E-1
3.502405420E0,5.878124833E-1,-8.408125043E-1,-2.865499854E-1
3.504939182E0,6.080250144E-1,-8.844000101E-1,-3.323374987E-1
3.507472799E0,6.197124720E-1,-9.270250201E-1,-3.770250082E-1
3.510006567E0,6.239749789E-1,-9.706124663E-1,-4.217124879E-1
3.512540184E0,6.410250068E-1,-9.685499668E-1,-4.419249892E-1
3.515074080E0,6.558749676E-1,-9.748749733E-1,-4.525125027E-1
3.517607698E0,6.623374820E-1,-9.706124663E-1,-4.504500031E-1
3.520141465E0,6.601374745E-1,-9.535624981E-1,-4.408249855E-1
3.522675082E0,6.495500207E-1,-9.323874712E-1,-4.291374981E-1
3.525208865E0,6.304374933E-1,-9.120374918E-1,-4.206124842E-1
3.527742482E0,6.154500246E-1,-8.630874753E-1,-4.046624899E-1
3.530276249E0,6.037625074E-1,-8.067125082E-1,-3.727625012E-1
3.532809867E0,5.846499801E-1,-7.492374778E-1,-3.343999982E-1
3.535343610E0,5.505499840E-1,-6.726499796E-1,-2.928749919E-1
3.537877227E0,5.026999712E-1,-5.960624814E-1,-2.428250015E-1
3.540410994E0,4.430249929E-1,-5.066875219E-1,-1.918125004E-1
3.542944535E0,3.909125030E-1,-3.832125068E-1,-1.385999918E-1
3.545478157E0,3.408625126E-1,-2.736249864E-1,-8.428750187E-2
3.548012003E0,2.887499928E-1,-1.629374921E-1,-2.997500077E-2
3.550545544E0,2.355374992E-1,-5.857500061E-2,1.897500083E-2
3.553079388E0,1.802625060E-1,4.784999788E-2,5.609999970E-2
3.555612934E0,1.333750039E-1,1.670625061E-1,9.872499853E-2
3.558146701E0,9.404999763E-2,2.457125038E-1,1.359875053E-1
3.560680318E0,5.568749830E-2,3.191374838E-1,1.647250056E-1
3.563214085E0,1.209999993E-2,3.840374947E-1,1.827374995E-1
3.565747698E0,-2.516249940E-2,4.479750097E-1,1.966249943E-1
3.568281465E0,-4.331250116E-2,5.000874996E-1,2.040500045E-1
3.570815082E0,-5.706249923E-2,5.394124985E-1,2.125750035E-1
3.573348850E0,-6.984999776E-2,5.894625187E-1,2.190375030E-1
3.575882439E0,-7.837499678E-2,6.320874691E-1,2.222000062E-1
3.578416206E0,-8.153750002E-2,6.703125238E-1,2.242625058E-1
3.580949824E0,-8.263749629E-2,7.075750232E-1,2.168374956E-1
3.583483591E0,-7.837499678E-2,7.396125197E-1,2.062499970E-1
3.586017212E0,-7.204999775E-2,7.682124972E-1,1.955250055E-1
3.588550980E0,-6.448750198E-2,7.948874831E-1,1.945624948E-1
3.591084597E0,-6.022499874E-2,8.364124894E-1,1.997874975E-1
3.593618364E0,-6.132499874E-2,8.874250054E-1,2.147749960E-1
3.596151973E0,-5.816249922E-2,9.481999874E-1,2.316875011E-1
3.598685740E0,-6.022499874E-2,1.025887489E0,2.583625019E-1
3.601219280E0,-6.132499874E-2,1.116225004E0,2.902624905E-1
3.603753124E0,-6.242499873E-2,1.215224981E0,3.286249936E-1
3.606286751E0,-6.558749825E-2,1.318487525E0,3.636874855E-1
3.608820518E0,-8.579999954E-2,1.434537530E0,3.881624937E-1
3.611354135E0,-1.241625026E-1,1.545087457E0,4.074124992E-1
3.613887903E0,-1.656875014E-1,1.656875014E0,4.360125065E-1
3.616421462E0,-2.103749961E-1,1.777187467E0,4.680500031E-1
3.618955076E0,-2.550624907E-1,1.881412506E0,4.914250076E-1
3.621488845E0,-2.943874896E-1,1.974087477E0,5.190625191E-1
3.624022691E0,-3.316499889E-1,2.069787502E0,5.383124948E-1
3.626556318E0,-3.700124919E-1,2.144312382E0,5.446375012E-1
3.629090086E0,-4.072749913E-1,2.185837507E0,5.414749980E-1
3.631623626E0,-4.061749876E-1,2.284837484E0,4.934875071E-1
3.634157241E0,-3.709749877E-1,2.427424908E0,3.955875039E-1
3.636690980E0,-3.837625086E-1,2.420962572E0,2.913624942E-1
3.639224597E0,-4.082374871E-1,2.360325098E0,2.008875012E-1
3.641758364E0,-4.104374945E-1,2.331587553E0,1.402499974E-1
3.644291982E0,-3.987500072E-1,2.344374895E0,1.337874979E-1
3.646825754E0,-3.880249858E-1,2.438012600E0,2.114749998E-1
3.649359371E0,-4.380750060E-1,2.469912529E0,3.499374986E-1
3.651893139E0,-5.040749907E-1,2.441174984E0,4.510000050E-1
3.654426756E0,-5.444999933E-1,2.387962580E0,5.053125024E-1
3.656960518E0,-5.732374787E-1,2.259262562E0,5.489000082E-1
3.659494136E0,-5.934500098E-1,2.098525047E0,6.074749827E-1
3.662027903E0,-5.988125205E-1,1.948512435E0,6.701750159E-1
3.664561520E0,-6.147624850E-1,1.810187459E0,7.319124937E-1
3.667095297E0,-6.370375156E-1,1.679287434E0,7.723374963E-1
3.669628915E0,-6.392375231E-1,1.576025009E0,7.766000032E-1
3.672162682E0,-6.232874990E-1,1.512225032E0,7.436000109E-1
3.674696299E0,-5.817624927E-1,1.469599962E0,6.701750159E-1
3.677230038E0,-5.593500137E-1,1.386549950E0,5.787374973E-1
3.679763578E0,-5.604500175E-1,1.234337449E0,4.797374904E-1
3.682297422E0,-5.242875218E-1,1.124750018E0,3.668499887E-1
3.684830963E0,-4.551250041E-1,1.080062509E0,2.551999986E-1
3.687364768E0,-3.965499997E-1,1.055587530E0,1.487749964E-1
3.689898385E0,-3.401750028E-1,1.024787545E0,5.609999970E-2
3.692432153E0,-2.773374915E-1,9.895874858E-1,-2.997500077E-2
3.694965693E0,-1.911250055E-1,9.736375213E-1,-1.087625027E-1
3.697499340E0,-8.043749630E-2,1.015162468E0,-1.736624986E-1
3.700033110E0,-1.787499990E-3,1.036474943E0,-2.035000026E-1
3.702566727E0,2.268750034E-2,9.448999763E-1,-2.140875012E-1
3.705100571E0,3.121249937E-2,7.959874868E-1,-2.003374994E-1
3.707634347E0,5.995000154E-2,7.044125199E-1,-1.704999954E-1
3.710167886E0,9.404999763E-2,6.341499686E-1,-1.502874941E-1
3.712701501E0,1.504250020E-1,5.543999672E-1,-2.290749997E-1
3.715235269E0,2.887499928E-1,4.958249927E-1,-6.323624849E-1
3.717768881E0,4.101625085E-1,1.722874939E-1,-1.039912462E0
3.720302648E0,4.910124838E-1,-2.619374990E-1,-1.227324963E0
3.722836266E0,5.590749979E-1,-5.502749681E-1,-1.283699989E0
3.725370033E0,6.304374933E-1,-7.588624954E-1,-1.315600038E0
3.727903650E0,6.857125163E-1,-9.631875157E-1,-1.383662462E0
3.730437417E0,7.229750156E-1,-1.176037550E0,-1.473037481E0
3.732971035E0,7.474499941E-1,-1.405937433E0,-1.561450005E0
3.735504802E0,7.676625252E-1,-1.668699980E0,-1.617825031E0
3.738038429E0,7.932375073E-1,-1.927337527E0,-1.624287486E0
3.740572197E0,8.177124858E-1,-2.138124943E0,-1.580562472E0
3.743105814E0,8.368250132E-1,-2.292399883E0,-1.510300040E0
3.745639581E0,8.347625136E-1,-2.407350063E0,-1.441137433E0
3.748173174E0,8.188124895E-1,-2.511574984E0,-1.391224980E0
3.750706941E0,8.080874681E-1,-2.604249954E0,-1.354925036E0
3.753240558E0,7.921375036E-1,-2.685100079E0,-1.325224996E0
3.755774097E0,7.687624693E-1,-2.746837378E0,-1.295387506E0
3.758307961E0,7.411249876E-1,-2.779837370E0,-1.264587522E0
3.760841730E0,7.081249952E-1,-2.786162376E0,-1.230487466E0
3.763375348E0,6.740249991E-1,-2.750000000E0,-1.185799956E0
3.765909115E0,6.356624961E-1,-2.682899952E0,-1.131487489E0
3.768442722E0,5.920749903E-1,-2.590362549E0,-1.069749951E0
3.770976261E0,5.516499877E-1,-2.476512432E0,-1.002787471E0
3.773510028E0,5.069624782E-1,-2.349874973E0,-9.208375216E-1
3.776043645E0,4.548499882E-1,-2.214712381E0,-8.420500159E-1
3.778577394E0,4.036999941E-1,-2.060437441E0,-7.728874683E-1
3.781111240E0,3.621749878E-1,-1.886912465E0,-6.898375154E-1
3.783644780E0,3.239499927E-1,-1.682587504E0,-5.823125243E-1
3.786178396E0,2.579500079E-1,-1.478262544E0,-4.801499844E-1
3.788712153E0,1.897500008E-1,-1.299512506E0,-4.120875001E-1
3.791245770E0,1.322750002E-1,-1.110037446E0,-3.227125108E-1
3.793779537E0,7.809999585E-2,-9.174000025E-1,-3.088249862E-1
3.796313155E0,2.598750032E-2,-7.779750228E-1,-3.779875040E-1
3.798846946E0,5.637499969E-3,-6.407499909E-1,-3.876124918E-1
3.801380563E0,-9.212499484E-3,-4.629625082E-1,-3.375625014E-1
3.803914331E0,-3.795000166E-2,-2.628999949E-1,-2.641375065E-1
3.806447948E0,-6.242499873E-2,-2.241249941E-2,-1.363999993E-1
3.808981730E0,-1.390125006E-1,1.989624947E-1,-3.327500075E-2
3.811515348E0,-2.369125038E-1,3.341250122E-1,-8.428750187E-2
3.814049115E0,-2.741749883E-1,4.329875112E-1,-1.588124931E-1
3.816582732E0,-2.730749846E-1,5.618249774E-1,-1.439625025E-1
3.819116509E0,-2.923249900E-1,7.235249877E-1,-5.775000155E-2
3.821650126E0,-3.486999869E-1,8.822000027E-1,3.918749839E-2
3.824183893E0,-4.124999940E-1,1.025887489E0,3.272499889E-2
3.826717511E0,-4.360125065E-1,1.141800046E0,-1.087625027E-1
3.829251268E0,-4.295499921E-1,1.207800031E0,-1.960749924E-1
3.831784885E0,-4.167625010E-1,1.291812539E0,-1.673374921E-1
3.834318424E0,-4.327124953E-1,1.393012524E0,-2.997500077E-2
3.836852268E0,-4.901874959E-1,1.465337515E0,4.235000163E-2
3.839385818E0,-5.487625003E-1,1.516487479E0,3.698749840E-2
3.841919662E0,-5.689749718E-1,1.527074933E0,-1.024374962E-1
3.844453432E0,-5.359749794E-1,1.519649982E0,-3.312374949E-1
3.846987049E0,-4.796000123E-1,1.487749934E0,-3.407250047E-1
3.849520607E0,-4.838624895E-1,1.503700018E0,-2.194499969E-1
3.852054374E0,-5.009124875E-1,1.535599947E0,-2.513499856E-1
3.854587991E0,-4.944500029E-1,1.503700018E0,-3.577750027E-1
3.857121758E0,-4.944500029E-1,1.416387439E0,-4.131875038E-1
3.859655362E0,-4.849624932E-1,1.317387462E0,-4.886749983E-1
3.862189129E0,-4.444000125E-1,1.196112514E0,-6.047250032E-1
3.864722746E0,-3.902249932E-1,1.060950041E0,-6.472125053E-1
3.867256514E0,-3.422375023E-1,9.726749659E-1,-6.164125204E-1
3.869790121E0,-3.103374839E-1,9.055749774E-1,-5.440874696E-1
3.872323888E0,-2.858625054E-1,8.481000066E-1,-4.599374831E-1
3.874857506E0,-2.784374952E-1,8.002499938E-1,-3.620375097E-1
3.877391273E0,-2.784374952E-1,7.555624843E-1,-3.982000053E-1
3.879924900E0,-2.635875046E-1,6.799374819E-1,-5.046250224E-1
3.882458668E0,-2.294874936E-1,5.735124946E-1,-5.461499691E-1
3.884992285E0,-2.018499970E-1,4.883999825E-1,-5.079249740E-1
3.887526052E0,-1.879625022E-1,4.277625084E-1,-4.578749835E-1
3.890059660E0,-1.816374958E-1,3.799124956E-1,-4.387624860E-1
3.892593427E0,-1.688500047E-1,3.543374836E-1,-4.354625046E-1
3.895127044E0,-1.688500047E-1,3.042874932E-1,-4.206124842E-1
3.897660583E0,-1.731124967E-1,2.095499933E-1,-3.961375058E-1
3.900194413E0,-1.720124930E-1,1.754499972E-1,-3.865124881E-1
3.902728182E0,-1.731124967E-1,1.722874939E-1,-3.779875040E-1
3.905261799E0,-1.794375032E-1,1.659625024E-1,-3.737249970E-1
3.907795567E0,-1.868624985E-1,1.819124967E-1,-3.727625012E-1
3.910329198E0,-1.901624948E-1,2.169750035E-1,-3.684999943E-1
3.912862965E0,-1.953874975E-1,2.649624944E-1,-3.407250047E-1
3.915396506E0,-1.986874938E-1,3.181749880E-1,-3.759250045E-1
3.917930119E0,-1.816374958E-1,3.660250008E-1,-4.621374905E-1
3.920463956E0,-1.518000066E-1,3.319250047E-1,-4.504500031E-1
3.922997726E0,-1.358499974E-1,3.224374950E-1,-2.897124887E-1
3.925531343E0,-1.699499935E-1,4.246000051E-1,-1.949750036E-1
3.928065110E0,-1.975875050E-1,4.702500105E-1,-3.355000019E-1
3.930598737E0,-1.720124930E-1,4.001249969E-1,-4.376625121E-1
3.933132275E0,-1.401125044E-1,3.606624901E-1,-4.439874887E-1
3.935666042E0,-1.145374998E-1,3.564000130E-1,-5.205749869E-1
3.938199660E0,-6.558749825E-2,3.031874895E-1,-4.259749949E-1
3.940733514E0,-7.095000148E-2,3.255999982E-1,-2.194499969E-1
3.943267054E0,-1.252624989E-1,3.713875115E-1,-1.363999993E-1
3.945800898E0,-1.379124969E-1,3.511750102E-1,-1.098624989E-1
3.948334439E0,-1.464374959E-1,3.500750065E-1,8.249999955E-4
3.950868292E0,-1.677500010E-1,3.958624899E-1,2.736249939E-2
3.953401833E0,-1.859000027E-1,4.085125029E-1,3.987499978E-3
3.955935600E0,-1.677500010E-1,3.745499849E-1,-2.758249938E-1
3.958469217E0,-1.145374998E-1,2.404875010E-1,-2.780250013E-1
3.961003003E0,-9.322500229E-2,2.202749997E-1,-2.470874935E-1
3.963536850E0,-8.896250278E-2,2.245374918E-1,-2.428250015E-1
3.966070390E0,-8.043749630E-2,2.010249943E-1,-2.950749993E-1
3.968604005E0,-5.389999971E-2,1.713249981E-1,-2.620750070E-1
3.971137745E0,-4.427500069E-2,2.021249980E-1,-8.744999766E-2
3.973671362E0,-8.043749630E-2,3.117125034E-1,1.295250058E-1
3.976205129E0,-1.581249982E-1,4.255625010E-1,8.483749628E-2
3.978738747E0,-1.709125042E-1,4.118124843E-1,-1.619749963E-1
3.981272518E0,-1.304875016E-1,3.319250047E-1,-1.226499975E-1
3.983806135E0,-1.304875016E-1,3.883000016E-1,1.787500083E-2
3.986339903E0,-1.581249982E-1,4.585624933E-1,-5.499999970E-3
3.988873520E0,-1.518000066E-1,4.372499883E-1,-9.707500041E-2
3.991407311E0,-9.748750180E-2,3.830749989E-1,-1.694000065E-1
3.993940929E0,-6.448750198E-2,3.585999906E-1,-1.556500047E-1
3.996474696E0,-3.849999979E-3,3.350875080E-1,-4.078249931E-1
3.999008313E0,9.611249715E-2,1.924999952E-1,-4.769875109E-1
4.001542071E0,1.897500008E-1,4.881250113E-2,-5.046250224E-1
4.004075689E0,2.472250015E-1,-6.077500060E-2,-5.068249702E-1
4.006609456E0,2.844874859E-1,-1.671999991E-1,-4.269374907E-1
4.009143073E0,2.919124961E-1,-2.352624983E-1,-2.886124849E-1
4.011676841E0,2.739000022E-1,-2.597374916E-1,-1.630750000E-1
4.014210458E0,2.472250015E-1,-2.534124851E-1,-7.150000334E-2
4.016744225E0,2.270125002E-1,-2.310000062E-1,-1.732499897E-2
4.019277843E0,2.184875011E-1,-2.001999915E-1,9.349999949E-3
4.021811619E0,2.217874974E-1,-1.703625023E-1,7.149999961E-3
4.024345236E0,2.281125039E-1,-1.618375033E-1,-8.799999952E-3
4.026878775E0,2.227499932E-1,-1.533125043E-1,-1.512499992E-2
4.029412619E0,2.036374956E-1,-1.373624951E-1,-1.938750036E-2
4.031946388E0,1.823250055E-1,-1.139874980E-1,-2.997500077E-2
4.034480006E0,1.695374995E-1,-9.473749995E-2,-5.555000156E-2
4.037013773E0,1.737999916E-1,-8.524999768E-2,-7.686249912E-2
4.039547313E0,1.791625023E-1,-7.988750190E-2,-9.171249717E-2
4.042080932E0,1.771000028E-1,-6.929999590E-2,-1.002374962E-1
4.044614678E0,1.748999953E-1,-6.599999964E-2,-1.055999994E-1
4.047148393E0,1.748999953E-1,-8.208750188E-2,-1.215500012E-1
4.049682088E0,1.823250055E-1,-1.139874980E-1,-1.194875017E-1
4.052215932E0,1.908500046E-1,-1.490499973E-1,-1.247124970E-1
4.054749472E0,1.973125041E-1,-2.076250017E-1,-1.354375035E-1
4.057283088E0,2.079000026E-1,-2.693625093E-1,-1.439625025E-1
4.059816865E0,2.099625021E-1,-3.172124922E-1,-1.545500010E-1
4.062350482E0,2.058375031E-1,-3.544749916E-1,-1.727000028E-1
4.064884249E0,2.099625021E-1,-3.980624974E-1,-2.035000026E-1
4.067417867E0,2.153249979E-1,-4.534749985E-1,-2.333374918E-1
4.069951648E0,2.270125002E-1,-5.098500252E-1,-2.673000097E-1
4.072485265E0,2.419999987E-1,-5.693874955E-1,-2.950749993E-1
4.075019033E0,2.505249977E-1,-6.257625222E-1,-3.152875006E-1
4.077552650E0,2.631750107E-1,-6.705874801E-1,-3.227125108E-1
4.080086417E0,2.920500040E-1,-6.991875172E-1,-2.854500115E-1
4.082620035E0,3.377000093E-1,-7.195374966E-1,-2.056999952E-1
4.085153802E0,3.430624902E-1,-7.407125235E-1,-2.131250054E-1
4.087687419E0,2.696374953E-1,-7.258625031E-1,-2.470874935E-1
4.090221182E0,1.535875052E-1,-6.991875172E-1,-2.461249977E-1
4.092754799E0,6.215000153E-2,-6.598625183E-1,-2.503874898E-1
4.095288566E0,1.636249945E-2,-6.162750125E-1,-3.152875006E-1
4.097822184E0,-1.553750038E-2,-5.992249846E-1,-3.557125032E-1
4.100355970E0,-5.499999970E-2,-5.790125132E-1,-3.525500000E-1
4.102889587E0,-9.638749808E-2,-5.406500101E-1,-3.195500076E-1
4.105423354E0,-1.401125044E-1,-5.066875219E-1,-2.726624906E-1
4.107956972E0,-1.805374920E-1,-4.885374904E-1,-2.279749960E-1
4.110490749E0,-2.155999988E-1,-4.842749834E-1,-1.907124966E-1
4.113024366E0,-2.230249941E-1,-4.948624969E-1,-1.673374921E-1
4.115558134E0,-2.220624983E-1,-5.311625004E-1,-1.449249983E-1
4.118091751E0,-2.358125001E-1,-5.354250073E-1,-1.077999994E-1
4.120625537E0,-2.539624870E-1,-5.161749721E-1,-8.002500236E-2
4.123159155E0,-2.560249865E-1,-5.161749721E-1,-4.496249929E-2
4.125692922E0,-2.550624907E-1,-5.109499693E-1,-1.512499992E-2
4.128226539E0,-2.624875009E-1,-4.991250038E-1,-3.437499981E-3
4.130760283E0,-2.688125074E-1,-5.055875182E-1,3.987499978E-3
4.133293900E0,-2.656500041E-1,-5.119125247E-1,6.187499966E-3
4.135827667E0,-2.593249977E-1,-5.193374753E-1,1.924999990E-3
4.138361285E0,-2.443374991E-1,-5.289624929E-1,-2.337499987E-3
4.140895047E0,-2.198625058E-1,-5.332249999E-1,5.087499972E-3
4.143428664E0,-1.964875013E-1,-5.343250036E-1,1.883750036E-2
4.145962431E0,-1.773750037E-1,-5.374875069E-1,3.492499888E-2
4.148496049E0,-1.614249945E-1,-5.268999934E-1,5.403750017E-2
4.151029578E0,-1.495999992E-1,-5.119125247E-1,7.315000147E-2
4.153563423E0,-1.432749927E-1,-5.076500177E-1,7.204999775E-2
4.156097192E0,-1.390125006E-1,-5.183749795E-1,7.535000145E-2
4.158630809E0,-1.293874979E-1,-5.300624967E-1,8.483749628E-2
4.161164542E0,-1.124750003E-1,-5.343250036E-1,8.910000324E-2
4.163698160E0,-9.006249905E-2,-5.438125134E-1,9.652499855E-2
4.166231927E0,-6.984999776E-2,-5.480750203E-1,1.072499976E-1
4.168765467E0,-4.427500069E-2,-5.598999858E-1,1.018875018E-1
4.171299091E0,-2.296249941E-2,-5.768125057E-1,8.593750000E-2
4.173832860E0,-4.949999973E-3,-5.906999707E-1,7.204999775E-2
4.176366477E0,1.526249945E-2,-6.109125018E-1,6.888750196E-2
4.178900245E0,2.694999985E-2,-6.257625222E-1,7.851249725E-2
4.181434095E0,4.716249928E-2,-6.450124979E-1,9.019999951E-2
4.183967635E0,7.699999958E-2,-6.780124903E-1,1.445125043E-1
4.186501480E0,1.088999957E-1,-6.758124828E-1,1.997874975E-1
4.189035020E0,1.281500012E-1,-6.609625220E-1,2.222000062E-1
4.191568635E0,1.333750039E-1,-6.578000188E-1,2.285249978E-1
4.194102385E0,1.376374960E-1,-6.450124979E-1,2.327875048E-1
4.196636002E0,1.419000030E-1,-6.237000227E-1,2.359499931E-1
4.199169769E0,1.472624987E-1,-5.981249809E-1,2.435124964E-1
4.201703387E0,1.526249945E-1,-5.576999784E-1,2.561624944E-1
4.204237154E0,1.440999955E-1,-4.916999936E-1,2.754124999E-1
4.206770771E0,1.313125044E-1,-4.119499922E-1,2.967250049E-1
4.209304538E0,1.131625026E-1,-3.246375024E-1,3.073124886E-1
4.211838156E0,9.721250087E-2,-2.523125112E-1,3.147374988E-1
4.214371928E0,8.236250281E-2,-1.809500009E-1,3.221625090E-1
4.216905546E0,6.737499684E-2,-1.097249985E-1,3.243624866E-1
4.219439313E0,5.678749830E-2,-5.115000159E-2,3.221625090E-1
4.221972930E0,5.252499878E-2,9.624999948E-4,3.126749992E-1
4.224506711E0,5.362499878E-2,4.248749837E-2,3.008500040E-1
4.227040329E0,5.678749830E-2,6.159999967E-2,2.998875082E-1
4.229574096E0,5.995000154E-2,8.607500046E-2,3.051125109E-1
4.232107713E0,5.995000154E-2,1.116499975E-1,3.093749881E-1
4.234641486E0,5.995000154E-2,1.340624988E-1,3.136374950E-1
4.237175103E0,6.421250105E-2,1.595000029E-1,3.232625127E-1
4.239708870E0,6.737499684E-2,1.798499972E-1,3.338499963E-1
4.242242488E0,6.421250105E-2,2.084500045E-1,3.466374874E-1
4.244776260E0,5.678749830E-2,2.447499931E-1,3.562625051E-1
4.247309877E0,3.877500072E-2,3.011249900E-1,3.625875115E-1
4.249843645E0,1.746249944E-2,3.489750028E-1,3.625875115E-1
4.252377262E0,4.674999975E-3,3.925625086E-1,3.497999907E-1
4.254911024E0,-1.347499993E-2,4.500375092E-1,3.264249861E-1
4.257444642E0,-3.575000167E-2,5.011875033E-1,3.019500077E-1
4.259978409E0,-5.499999970E-2,5.512375236E-1,2.839374840E-1
4.262512026E0,-7.947500050E-2,6.107749939E-1,2.679874897E-1
4.265045745E0,-1.102750003E-1,6.714124680E-1,2.540999949E-1
4.267579363E0,-1.464374959E-1,7.353500128E-1,2.476374954E-1
4.270113130E0,-1.794375032E-1,8.023124933E-1,2.424124926E-1
4.272646747E0,-2.113374919E-1,8.768374920E-1,2.285249978E-1
4.275180510E0,-2.517625093E-1,9.545249939E-1,2.136749923E-1
4.277714050E0,-3.029125035E-1,1.031112552E0,1.955250055E-1
4.280247894E0,-3.581874967E-1,1.120487452E0,1.721500009E-1
4.282781435E0,-3.944875002E-1,1.202437520E0,1.465750039E-1
4.285315279E0,-4.189625084E-1,1.274899960E0,1.285624951E-1
4.287848819E0,-4.571875036E-1,1.357812524E0,1.135749966E-1
4.290382664E0,-5.072374940E-1,1.443062544E0,9.336250275E-2
4.292916281E0,-5.487625003E-1,1.504662514E0,6.366249919E-2
4.295450048E0,-5.880874991E-1,1.552649975E0,4.661250114E-2
4.297983666E0,-6.210874915E-1,1.602562547E0,2.846249938E-2
4.300517433E0,-6.424000263E-1,1.618649960E0,1.787500083E-2
4.303050973E0,-6.509249806E-1,1.602562547E0,1.251249947E-2
4.305584621E0,-6.466624737E-1,1.582350016E0,-1.374999993E-3
4.308118390E0,-6.424000263E-1,1.550449967E0,-1.828750037E-2
4.310652236E0,-6.359375119E-1,1.511124969E0,-3.643750027E-2
4.313185777E0,-6.296125054E-1,1.457912445E0,-5.032499880E-2
4.315719616E0,-6.264500022E-1,1.401537538E0,-6.517499685E-2
4.318253156E0,-6.275500059E-1,1.344062448E0,-6.627500057E-2
4.320786772E0,-6.253499985E-1,1.281224966E0,-6.517499685E-2
4.323320539E0,-6.253499985E-1,1.213162541E0,-6.407500058E-2
4.325854156E0,-6.190249920E-1,1.144000053E0,-6.407500058E-2
4.328387923E0,-6.104999781E-1,1.085425019E0,-6.517499685E-2
4.330921541E0,-6.082999706E-1,1.031112552E0,-7.053750008E-2
4.333455308E0,-6.051374674E-1,9.684125185E-1,-8.332499862E-2
4.335988911E0,-5.945500135E-1,9.151999950E-1,-9.707500041E-2
4.338522679E0,-5.806624889E-1,8.608874679E-1,-1.077999994E-1
4.341056296E0,-5.615500212E-1,7.980499864E-1,-1.247124970E-1
4.343590063E0,-5.465624928E-1,7.396125197E-1,-1.322750002E-1
4.346123685E0,-5.295125246E-1,6.863999963E-1,-1.247124970E-1
4.348657452E0,-5.135625005E-1,6.417124867E-1,-1.098624989E-1
4.351191069E0,-5.009124875E-1,5.968874693E-1,-9.927500039E-2
4.353724837E0,-4.881249964E-1,5.564625263E-1,-9.501250088E-2
4.356258488E0,-4.848249853E-1,5.202999711E-1,-9.501250088E-2
4.358792255E0,-4.859249890E-1,4.947249889E-1,-1.002374962E-1
4.361325873E0,-4.731374979E-1,4.692874849E-1,-1.002374962E-1
4.363859640E0,-4.529249966E-1,4.437125027E-1,-1.013374999E-1
4.366393267E0,-4.358749986E-1,4.170374870E-1,-1.077999994E-1
4.368927034E0,-4.210250080E-1,3.894000053E-1,-1.194875017E-1
4.371460652E0,-4.008125067E-1,3.564000130E-1,-1.258125007E-1
4.373994419E0,-3.763374984E-1,3.309625089E-1,-1.289750040E-1
4.376528020E0,-3.465000093E-1,3.022249937E-1,-1.343374997E-1
4.379061788E0,-3.210625052E-1,2.787125111E-1,-1.354375035E-1
4.381595405E0,-3.060750067E-1,2.521750033E-1,-1.417624950E-1
4.384129172E0,-2.773374915E-1,2.245374918E-1,-1.365374923E-1
4.386662766E0,-2.305874974E-1,1.989624947E-1,-1.247124970E-1
4.389196533E0,-1.922249943E-1,1.808124930E-1,-1.152250022E-1
4.391730150E0,-1.677500010E-1,1.606000066E-1,-1.087625027E-1
4.394263918E0,-1.549624950E-1,1.392875016E-1,-1.098624989E-1
4.396797530E0,-1.421750039E-1,1.181124970E-1,-1.067000031E-1
4.399331297E0,-1.369500011E-1,9.790000319E-2,-1.109625027E-1
4.401864915E0,-1.401125044E-1,9.033749998E-2,-1.215500012E-1
4.404398682E0,-1.507000029E-1,9.363749623E-2,-1.322750002E-1
4.406932280E0,-1.677500010E-1,1.062875018E-1,-1.482249945E-1
4.409466047E0,-1.922249943E-1,1.233374998E-1,-1.641750038E-1
4.411999665E0,-2.124374956E-1,1.446499974E-1,-1.832875013E-1
4.414533432E0,-2.272875011E-1,1.755875051E-1,-2.066625059E-1
4.417067044E0,-2.486000061E-1,2.021249980E-1,-2.364999950E-1
4.419600812E0,-2.688125074E-1,2.212374955E-1,-2.694999874E-1
4.422134429E0,-2.912249863E-1,2.234375030E-1,-3.025000095E-1
4.424668196E0,-3.029125035E-1,2.127124965E-1,-3.227125108E-1
4.427201833E0,-3.060750067E-1,2.032250017E-1,-2.919124961E-1
4.429735600E0,-2.997500002E-1,2.191749960E-1,-2.173874974E-1
4.432269217E0,-2.762374878E-1,2.362249941E-1,-1.812250018E-1
4.434802985E0,-2.348500043E-1,1.958000064E-1,-2.279749960E-1
4.437336617E0,-1.731124967E-1,8.607500046E-2,-3.088249862E-1
4.439870384E0,-1.241625026E-1,-3.299999982E-2,-3.152875006E-1
4.442403925E0,-1.091749966E-1,-8.195000142E-2,-2.344374955E-1
4.444937769E0,-9.432499856E-2,-7.768750191E-2,-1.747625023E-1
4.447471275E0,-7.301250100E-2,-1.054624990E-1,-1.929125041E-1
4.450005119E0,-5.073750019E-2,-1.479499936E-1,-2.056999952E-1
4.452538737E0,-3.575000167E-2,-1.394249946E-1,-1.790249944E-1
4.455072504E0,-4.111250117E-2,-1.075249985E-1,-8.428750187E-2
4.457606121E0,-6.875000149E-2,-2.034999989E-2,1.306249946E-1
4.460139660E0,-1.039500013E-1,1.520749927E-1,2.381500006E-1
4.462673427E0,-1.124750003E-1,2.701874971E-1,1.849374920E-1
4.465207045E0,-9.968750179E-2,3.117125034E-1,1.391499937E-1
4.467740802E0,-1.006499976E-1,3.905000091E-1,1.530375034E-1
4.470274648E0,-1.113749966E-1,5.224999785E-1,1.593624949E-1
4.472808265E0,-1.358499974E-1,6.437749863E-1,1.423124969E-1
4.475342033E0,-1.794375032E-1,7.672500014E-1,1.838375032E-1
4.477875660E0,-2.688125074E-1,9.013124704E-1,4.063124955E-1
4.480409427E0,-3.689124882E-1,1.102475047E0,6.808999777E-1
4.482942968E0,-3.954499960E-1,1.375962496E0,6.329125166E-1
4.485476581E0,-3.848625124E-1,1.567499995E0,4.977499843E-1
4.488010369E0,-3.752374947E-1,1.633499980E0,3.423750103E-1
4.490543987E0,-3.752374947E-1,1.612187505E0,2.285249978E-1
4.493077754E0,-4.113999903E-1,1.628137469E0,2.285249978E-1
4.495611371E0,-4.890874922E-1,1.678187490E0,3.253250122E-1
4.498145230E0,-5.838249922E-1,1.741987467E0,4.754749835E-1
4.500678771E0,-6.774625182E-1,1.803725004E0,7.276499867E-1
4.503212538E0,-7.254499793E-1,1.927199960E0,8.702374697E-1
4.505746156E0,-7.232499719E-1,2.027299881E0,8.830249906E-1
4.508279918E0,-7.306749821E-1,2.095362425E0,9.426999688E-1
4.510813535E0,-7.935125232E-1,2.170850039E0,1.167237520E0
4.513347302E0,-9.383000135E-1,2.303950071E0,1.642850041E0
4.515880920E0,-1.234062552E0,2.499749899E0,2.464412451E0
4.518414672E0,-1.632125020E0,2.864812374E0,3.510512590E0
4.520948289E0,-1.982200027E0,3.463900089E0,4.200212479E0
4.523482057E0,-2.195050001E0,3.875712395E0,4.591812611E0
4.526015674E0,-2.349324942E0,4.128025055E0,5.066462517E0
4.528549446E0,-2.179100037E0,4.597312450E0,5.219637394E0
4.531083064E0,-1.844974995E0,5.057112694E0,4.874925137E0
4.533616831E0,-1.451174974E0,5.327300072E0,4.523749828E0
4.536150448E0,-1.128737450E0,5.559400082E0,4.169274807E0
4.538684227E0,-9.158874750E-1,5.683837414E0,3.752099991E0
4.541217844E0,-8.190875053E-1,5.686037540E0,3.304125071E0
4.543751688E0,-8.148249984E-1,5.608349800E0,2.836899996E0
4.546285229E0,-8.467249870E-1,5.384775162E0,2.357024908E0
4.548818991E0,-8.775249720E-1,5.089974880E0,1.890900016E0
4.551352608E0,-8.456249833E-1,4.782525063E0,1.467262506E0
4.553886375E0,-7.456625104E-1,4.503674984E0,1.105499983E0
4.556419993E0,-6.082999706E-1,4.291924953E0,8.234875202E-1
4.558953755E0,-4.551250041E-1,4.119500160E0,6.254875064E-1
4.561487372E0,-3.092375100E-1,3.951337576E0,4.934875071E-1
4.564021140E0,-1.825999916E-1,3.747012377E0,4.009499848E-1
4.566554757E0,-8.263749629E-2,3.540487528E0,3.275249898E-1
4.569088534E0,8.937500417E-3,3.272362471E0,2.307250053E-1
4.571622152E0,1.121999994E-1,2.916924953E0,9.019999951E-2
4.574155919E0,2.388374954E-1,2.497687578E0,-1.035374999E-1
4.576689536E0,3.781250119E-1,2.054937601E0,-3.121249974E-1
4.579223284E0,5.282750130E-1,1.602562547E0,-5.344625115E-1
4.581756901E0,6.836500168E-1,1.075799942E0,-7.612000108E-1
4.584290668E0,8.751875162E-1,5.043500066E-1,-9.792749882E-1
4.586824286E0,1.070987463E0,-2.557500079E-2,-1.179337502E0
4.589358053E0,1.278475046E0,-5.619624853E-1,-1.344337463E0
4.591891670E0,1.492424965E0,-1.128187537E0,-1.458187461E0
4.594425437E0,1.696750045E0,-1.669800043E0,-1.513599992E0
4.596959055E0,1.895712495E0,-2.207287550E0,-1.519924998E0
4.599492793E0,2.047924995E0,-2.680837393E0,-1.482662439E0
4.602026411E0,2.151187420E0,-3.108599901E0,-1.412400007E0
4.604560178E0,2.199037552E0,-3.505562544E0,-1.338974953E0
4.607093795E0,2.193675041E0,-3.881212473E0,-1.270912528E0
4.609627582E0,2.167137384E0,-4.234587669E0,-1.203812480E0
4.612161200E0,2.134137392E0,-4.585762501E0,-1.150599957E0
4.614694967E0,2.084087372E0,-4.912462711E0,-1.069749951E0
4.617228584E0,2.002137423E0,-5.160375118E0,-9.707499743E-1
4.619762342E0,1.909600019E0,-5.365799904E0,-8.995249867E-1
4.622295959E0,1.820225000E0,-5.545650005E0,-8.377875090E-1
4.624829726E0,1.730849981E0,-5.674487591E0,-8.005250096E-1
4.627363344E0,1.639274955E0,-5.755337238E0,-7.994250059E-1
4.629897087E0,1.547700047E0,-5.795762539E0,-8.281624913E-1
4.632430704E0,1.463687539E0,-5.822299957E0,-8.804125190E-1
4.634964243E0,1.370049953E0,-5.800024986E0,-9.356874824E-1
4.637498087E0,1.249737501E0,-5.690437317E0,-9.675874710E-1
4.640031861E0,1.106050014E0,-5.507287502E0,-9.889000058E-1
4.642565479E0,9.517750144E-1,-5.274224758E0,-1.000587463E0
4.645099246E0,7.858124971E-1,-4.984787464E0,-9.974250197E-1
4.647632863E0,6.208124757E-1,-4.593187332E0,-9.707499743E-1
4.650166610E0,4.600749910E-1,-4.167487621E0,-9.336249828E-1
4.652700228E0,3.143250048E-1,-3.707824945E0,-8.878374696E-1
4.655233995E0,1.737999916E-1,-3.218187571E0,-8.409500122E-1
4.657767612E0,3.877500072E-2,-2.718100071E0,-7.899374962E-1
4.660301371E0,-9.638749808E-2,-2.205087423E0,-7.387874722E-1
4.662834988E0,-2.155999988E-1,-1.723012447E0,-6.824125051E-1
4.665368755E0,-3.231250048E-1,-1.251525044E0,-6.186124682E-1
4.667902373E0,-4.135999978E-1,-7.981874943E-1,-5.600374937E-1
4.670436154E0,-4.901874959E-1,-3.630000055E-1,-5.036625266E-1
4.672969771E0,-5.604500175E-1,5.953750014E-2,-4.547125101E-1
4.675503310E0,-6.168249846E-1,4.596624970E-1,-4.078249931E-1
4.678037154E0,-6.646749973E-1,8.267874718E-1,-3.695999980E-1
4.680570708E0,-7.030375004E-1,1.165174961E0,-3.397625089E-1
4.683104476E0,-7.360374928E-1,1.480187535E0,-3.141874969E-1
4.685638322E0,-7.668374777E-1,1.765499949E0,-2.982375026E-1
4.688171862E0,-7.955750227E-1,2.023037434E0,-2.843500078E-1
4.690705697E0,-8.200500011E-1,2.245374918E0,-2.737624943E-1
4.693239238E0,-8.392999768E-1,2.435950041E0,-2.684000134E-1
4.695772853E0,-8.487874866E-1,2.591325045E0,-2.674374878E-1
4.698306621E0,-8.530499935E-1,2.711499929E0,-2.578125000E-1
4.700840471E0,-8.552500010E-1,2.796612501E0,-2.450249940E-1
4.703374011E0,-8.498874903E-1,2.855187416E0,-2.353999913E-1
4.705907627E0,-8.402624726E-1,2.885025024E0,-2.194499969E-1
4.708441471E0,-8.285750151E-1,2.894512415E0,-2.035000026E-1
4.710975250E0,-8.148249984E-1,2.885025024E0,-1.864500046E-1
4.713508790E0,-7.924125195E-1,2.850924969E0,-1.662375033E-1
4.716042406E0,-7.562500238E-1,2.794549942E0,-1.534499973E-1
4.718576173E0,-7.073000073E-1,2.714662552E0,-1.407999992E-1
4.721109800E0,-6.338750124E-1,2.618962526E0,-1.161874980E-1
4.723643568E0,-5.498625040E-1,2.519962549E0,-1.130250022E-1
4.726177185E0,-4.805625081E-1,2.416699886E0,-1.588124931E-1
4.728710952E0,-4.454999864E-1,2.280575037E0,-2.290749997E-1
4.731244817E0,-4.230875075E-1,2.117637396E0,-3.036000133E-1
4.733778358E0,-3.997125030E-1,1.934625030E0,-3.695999980E-1
4.736311973E0,-3.709749877E-1,1.733462453E0,-4.302375019E-1
4.738845741E0,-3.242250085E-1,1.527074933E0,-4.738250077E-1
4.741379387E0,-2.688125074E-1,1.325912476E0,-5.014625192E-1
4.743913154E0,-1.985500008E-1,1.131212473E0,-5.196124911E-1
4.746446772E0,-1.326874942E-1,9.513624907E-1,-5.249750018E-1
4.748980539E0,-7.095000148E-2,7.832000256E-1,-5.238749981E-1
4.751514156E0,-1.869999990E-2,6.193000078E-1,-5.164499879E-1
4.754047923E0,2.062499896E-2,4.745124876E-1,-5.046250224E-1
4.756581541E0,5.046249926E-2,3.383874893E-1,-4.812499881E-1
4.759115308E0,8.442500234E-2,2.117500007E-1,-4.578749835E-1
4.761648944E0,1.174250022E-1,9.033749998E-2,-4.387624860E-1
4.764182712E0,1.419000030E-1,-2.777500078E-2,-4.163500071E-1
4.766716329E0,1.696749926E-1,-1.308999956E-1,-3.918749988E-1
4.769250096E0,1.919499934E-1,-2.246749997E-1,-3.673999906E-1
4.771783714E0,2.100999951E-1,-3.118500113E-1,-3.451249897E-1
4.774317481E0,2.260500044E-1,-3.821125031E-1,-3.258749843E-1
4.776851098E0,2.366375029E-1,-4.523749948E-1,-3.110249937E-1
4.779384866E0,2.473624945E-1,-5.226374865E-1,-2.971374989E-1
4.781918502E0,2.633124888E-1,-5.725499988E-1,-2.919124961E-1
4.784452269E0,2.759625018E-1,-6.140750051E-1,-2.748624980E-1
4.786985887E0,2.770625055E-1,-6.513375044E-1,-2.546499968E-1
4.789519654E0,2.792625129E-1,-6.630250216E-1,-2.344374955E-1
4.792053300E0,2.792625129E-1,-6.694874763E-1,-2.162874937E-1
4.794587067E0,2.770625055E-1,-6.609625220E-1,-1.981374919E-1
4.797120685E0,2.770625055E-1,-6.450124979E-1,-1.790249944E-1
4.799654452E0,2.792625129E-1,-6.407499909E-1,-1.619749963E-1
4.802188069E0,2.813250124E-1,-6.226000190E-1,-1.502874941E-1
4.804721837E0,2.877874970E-1,-5.906999707E-1,-1.375000030E-1
4.807255454E0,2.930124998E-1,-5.556374788E-1,-1.226499975E-1
4.809789221E0,2.952125072E-1,-5.226374865E-1,-1.067000031E-1
4.812322867E0,2.909500003E-1,-4.768500030E-1,-9.075000137E-2
4.814856634E0,2.835249901E-1,-4.310624897E-1,-7.369999588E-2
4.817390174E0,2.696374953E-1,-3.724874854E-1,-5.348749831E-2
4.819924019E0,2.536875010E-1,-3.055250049E-1,-3.437500075E-2
4.822457650E0,2.345750034E-1,-2.224749923E-1,-2.254999988E-2
4.824991417E0,2.132624984E-1,-1.342000067E-1,-7.699999958E-3
4.827525035E0,1.973125041E-1,-4.688749835E-2,8.249999955E-3
4.830058802E0,1.823250055E-1,4.468749836E-2,1.567500085E-2
4.832592382E0,1.728374958E-1,1.340624988E-1,1.883750036E-2
4.835126149E0,1.611499935E-1,2.212374955E-1,1.457499992E-2
4.837659767E0,1.472624987E-1,3.106124997E-1,5.087499972E-3
4.840193534E0,1.324124932E-1,3.905000091E-1,-5.637499969E-3
4.842727122E0,1.164624989E-1,4.607625008E-1,-2.158750035E-2
4.845260890E0,1.014750004E-1,5.310249925E-1,-4.069999978E-2
4.847794507E0,8.772499859E-2,5.937250257E-1,-6.091250107E-2
4.850328274E0,7.383749634E-2,6.554625034E-1,-8.538749814E-2
4.852861892E0,5.995000154E-2,7.203624845E-1,-1.013374999E-1
4.855395659E0,4.619999975E-2,7.767375112E-1,-1.172875017E-1
4.857929199E0,3.024999984E-2,8.278874755E-1,-1.289750040E-1
4.860463044E0,1.952499896E-2,8.629499674E-1,-1.417624950E-1
4.862996578E0,1.099999994E-2,8.927875161E-1,-1.524875015E-1
4.865530422E0,4.674999975E-3,9.215250015E-1,-1.588124931E-1
4.868063963E0,-1.787499990E-3,9.374749660E-1,-1.641750038E-1
4.870597807E0,-7.012499962E-3,9.448999763E-1,-1.662375033E-1
4.873131429E0,-1.237499993E-2,9.491624832E-1,-1.673374921E-1
4.875665196E0,-1.773750037E-2,9.406374693E-1,-1.704999954E-1
4.878198814E0,-2.089999989E-2,9.279875159E-1,-1.704999954E-1
4.880732352E0,-2.626249939E-2,9.076374769E-1,-1.694000065E-1
4.883266105E0,-3.575000167E-2,8.842625022E-1,-1.673374921E-1
4.885799722E0,-4.001250118E-2,8.566250205E-1,-1.619749963E-1
4.888333489E0,-3.795000166E-2,8.310499787E-1,-1.641750038E-1
4.890867335E0,-3.891250119E-2,8.002499938E-1,-1.673374921E-1
4.893400862E0,-3.478749841E-2,7.629874945E-1,-1.652749926E-1
4.895934706E0,-2.832499892E-2,7.268249989E-1,-1.673374921E-1
4.898468323E0,-2.089999989E-2,6.927250028E-1,-1.641750038E-1
4.901002091E0,-1.347499993E-2,6.534000039E-1,-1.630750000E-1
4.903535698E0,-1.017499994E-2,6.204000115E-1,-1.599124968E-1
4.906069236E0,-4.949999973E-3,5.842375159E-1,-1.534499973E-1
4.908603004E0,-6.874999963E-4,5.447750092E-1,-1.502874941E-1
4.911136621E0,3.574999981E-3,5.075125098E-1,-1.417624950E-1
4.913670465E0,1.003750041E-2,4.767124951E-1,-1.311749965E-1
4.916204006E0,8.937500417E-3,4.448125064E-1,-1.172875017E-1
4.918737850E0,7.837500423E-3,4.277625084E-1,-1.067000031E-1
4.921271390E0,1.003750041E-2,4.192374945E-1,-9.391249716E-2
4.923805240E0,1.526249945E-2,4.129124880E-1,-8.758749813E-2
4.926338780E0,1.319999993E-2,4.043875039E-1,-8.648750186E-2
4.928872547E0,8.937500417E-3,3.925625086E-1,-8.332499862E-2
4.931406165E0,1.526249945E-2,3.905000091E-1,-7.796250284E-2
4.933939919E0,2.804999985E-2,4.096125066E-1,-7.150000334E-2
4.936473536E0,3.547500074E-2,4.223999977E-1,-5.775000155E-2
4.939007303E0,3.767500073E-2,4.160749912E-1,-3.849999979E-2
4.941540921E0,3.451250121E-2,3.947624862E-1,-2.048750035E-2
4.944074668E0,2.914999984E-2,3.799124956E-1,-7.699999958E-3
4.946608514E0,3.547500074E-2,3.500750065E-1,6.187499966E-3
4.949142055E0,4.936249927E-2,3.309625089E-1,2.419999987E-2
4.951675670E0,5.995000154E-2,3.330250084E-1,3.698749840E-2
4.954209423E0,6.847500056E-2,3.255999982E-1,3.492499888E-2
4.956743041E0,6.847500056E-2,3.096500039E-1,2.639999986E-2
4.959276808E0,6.641250104E-2,2.809124887E-1,3.987499978E-3
4.961810425E0,7.273750007E-2,2.223374993E-1,-1.196249947E-2
4.964344193E0,8.236250281E-2,1.489125043E-1,-1.732499897E-2
4.966877810E0,9.295000136E-2,9.363749623E-2,-1.938750036E-2
4.969411577E0,9.515000135E-2,4.784999788E-2,-1.402499992E-2
4.971945195E0,9.515000135E-2,-6.462499965E-3,-1.374999993E-3
4.974478938E0,9.941250086E-2,-4.688749835E-2,1.251249947E-2
4.977012555E0,9.941250086E-2,-7.672499865E-2,2.639999986E-2
4.979546322E0,9.721250087E-2,-9.899999946E-2,3.492499888E-2
4.982079940E0,9.404999763E-2,-1.171500012E-1,4.235000163E-2
4.984613702E0,9.611249715E-2,-1.214125007E-1,5.403750017E-2
4.987147320E0,1.003749967E-1,-1.214125007E-1,5.513750017E-2
4.989681087E0,8.236250281E-2,-1.788875014E-1,5.293750018E-2
4.992214704E0,6.421250105E-2,-2.651000023E-1,4.551250115E-2
4.994748548E0,7.699999958E-2,-2.788499892E-1,5.939999968E-2
4.997282089E0,1.164624989E-1,-2.523125112E-1,1.029874980E-1
4.999815856E0,1.663749963E-1,-2.448875010E-1,1.539999992E-1
5.002349473E0,2.025374919E-1,-2.651000023E-1,1.870000064E-1
5.004883265E0,2.143625021E-1,-2.756874859E-1,1.944250017E-1
5.007416882E0,2.067999989E-1,-2.608374953E-1,1.742125005E-1
5.009950649E0,2.089999914E-1,-2.204124928E-1,1.487749964E-1
5.012484267E0,2.121624947E-1,-1.852124929E-1,1.220999956E-1
5.015018024E0,2.195875049E-1,-1.512500048E-1,1.093124971E-1
5.017551641E0,2.217874974E-1,-1.299374998E-1,1.146750003E-1
5.020085409E0,2.175250053E-1,-1.277374923E-1,1.337874979E-1
5.022619026E0,2.058375031E-1,-1.458874941E-1,1.593624949E-1
5.025152793E0,1.919499934E-1,-1.724250019E-1,1.880999953E-1
5.027686411E0,1.771000028E-1,-1.937374920E-1,2.083124965E-1
5.030220178E0,1.632124931E-1,-2.150499970E-1,2.190375030E-1
5.032753795E0,1.515250057E-1,-2.363625020E-1,2.199999988E-1
5.035287557E0,1.419000030E-1,-2.608374953E-1,2.147749960E-1
5.037821175E0,1.302125007E-1,-2.842124999E-1,2.040500045E-1
